participant_id,prp_t2_cv_all,prp_t2_cv_short,prp_t2_cv_long,prp_cascade_rate,prp_cascade_inflation,prp_pes,prp_t2_trials,stroop_post_error_slowing,stroop_post_error_rt,stroop_post_correct_rt,stroop_incong_slope,stroop_cv_all,stroop_cv_incong,stroop_cv_cong,stroop_trials,wcst_pes,wcst_post_switch_error_rate,wcst_cv_rt,wcst_trials
06qcrpGKL6Vc3LVplFQC90VAcRm1,0.3227493500061959,0.20256598626238057,0.17295066967749453,0.0,0.0,31.272268916754115,120.0,53.239622653233596,742.8000000119209,689.5603773586873,-1.1284386970841078,0.23145847681179874,0.2137859980396471,0.25504085898842377,108,957.0024886905505,0.36,0.5386120284936368,82
0ZtXlQtAJkW6jS21vfMOtNL4OnL2,0.4934148615181696,0.3987288239482496,0.2551088080783944,0.0,0.0,381.5000000000588,120.0,7.328095238139099,689.5500000000466,682.2219047619075,-0.8844531277022499,0.36607371146735385,0.3853901398576104,0.24920293868238033,108,741.8416783216562,0.4,0.6966151389540045,77
0d841i8KPjdjwCYfDuUUXj0SEjH2,0.5163339869885977,0.42984471847707945,0.37670397284850354,0.008333333333333333,0.20000000000000018,372.84260860940685,120.0,36.43814087525391,949.5333331425985,913.0951922673446,0.04749745420681721,0.31693761532815035,0.27010246855070363,0.23475571952495974,108,1149.5974575200323,0.19999999999999998,0.7138070339353305,68
0oa5NYVnIBS9NmrmRAZrahXDctP2,0.4870005491372277,0.42528561157435135,0.2686595699543901,0.0,0.0,178.6140328666994,120.0,145.06116505021464,685.8000000007451,540.7388349505304,0.6079421358122332,0.2605480839688903,0.29927453646085306,0.2548539231328533,108,737.9312903192736,0.31999999999999995,1.357729811448622,73
146QT9LupyU2BAiTsB3PMIpVXM22,0.5595241843036224,0.4478200198058764,0.3997489271880108,0.008403361344537815,0.16666666666666652,733.0932153425781,119.0,350.8943396133353,1130.8999999910593,780.005660377724,-1.162585840841824,0.30209797150964696,0.28792872395998836,0.26352771090101773,108,298.4701492522486,0.31999999999999995,0.3991554371094512,77
1Vb7DcXYw9R86bw5qj9eBk9fPqA2,0.38841630822519857,0.24851603229407393,0.5063247935058389,0.0,0.0,328.5921739150649,120.0,471.05471699614577,1635.2000000178814,1164.1452830217356,-3.20604005611429,0.3751787323555192,0.3886320507505717,0.3101467016058649,108,3135.326930320756,0.31999999999999995,0.8400056804702442,69
1dpmVw8fpcc2IHs0s9WqdU8Yvi53,0.34890292159377817,0.2664911407884794,0.36188339482833015,0.0,,,120.0,3.031132079520262,950.5,947.4688679204797,-2.3350335281231156,0.28466621947477416,0.29582079306948045,0.20153172616955706,108,1598.351639322961,0.27999999999999997,0.8686335278157722,72
1tT7dcLvf0bMGBdBWWYd8YkdJwr1,0.3972953320386358,0.26225493035912095,0.5100740904379676,0.0,,,119.0,44.50095241183328,950.1000000238419,905.5990476120086,2.1313313904053577,0.4189524713558782,0.3826101490393938,0.44013963608733786,108,566.9662337671627,0.23999999999999994,1.845680560176352,88
1upUBO9zBnhHcpJ1WoAnaBXWKRV2,0.44621875550723505,0.3198532870331075,0.5860234912619421,0.016666666666666666,0.13333333333333333,36.46571428946095,120.0,130.0981131842674,1054.899999976158,924.8018867918905,0.4595655549330364,0.3360517366694788,0.3457602036137201,0.3388436252204115,108,-78.11995037678753,0.7333333333333334,0.554493926851749,128
23AEyocWhqY955WHbxhHRSgQ1ms2,0.5686245282094724,0.46446279523255496,0.7554630827827872,0.4576271186440678,0.9818181818181818,-108.00167388166017,118.0,-78.70849056717645,712.3999999985099,791.1084905656863,-1.1174328861687302,0.2314700848713029,0.2961595756713161,0.16322755182171628,108,844.5909090903072,0.52,1.6965810616944723,85
2FHuv7L9nWPdbIiWHRIuXtcoyw83,0.48495284916913933,0.37003360349467157,0.6712553967044865,0.008928571428571428,0.14285714285714285,177.81904761904968,112.0,121.68811881193369,1371.5000000000582,1249.8118811881245,0.16264082974518893,0.3162009881347883,0.27932466214424784,0.26707151771995563,104,488.2604735883501,0.31999999999999995,0.4159083149373948,71
2h5FgHUEvBS1twD5DqbTIRrMm1f2,0.49317779674470325,0.2680768428737908,0.6039562074553332,0.0,0.0,449.21436782455316,119.0,891.7132075496439,1648.0,756.2867924503561,-4.49362184628922,0.40088050487398413,0.44467575058966985,0.3309528215284193,108,2203.475717702337,0.5199999999999999,1.1989486450888636,99
2zDXvJKvjeejeOSNbtDbtSI5cdz1,0.3678140572458737,0.21077546269447153,0.30614170942855307,0.0,0.0,426.0991596635747,120.0,,,759.42897196269,-0.38648261126089206,0.26410421159916125,0.26696037847466286,0.2316046676039969,108,1061.7963570131155,0.32,0.5281048893101306,71
3FSnTCSiUodLp5u3bE0xaUjLk0b2,0.46572888919192545,0.30021352023105463,0.3631752146975151,0.0,0.0,497.64322033911253,120.0,,,845.5149532710267,-1.925165213722997,0.253609576463594,0.2559870626265173,0.22755644762965563,108,1128.4895604395601,0.27999999999999997,0.981567862712044,84
3WijiOiVCoMbn80F05SPYsxl0TC2,0.3683576937504763,0.2340385217692236,0.39183408529129593,0.0,0.0,-267.5453781280197,120.0,,,835.6887850460605,-0.009872546277743316,0.24172487426436398,0.2702447968123998,0.2319246932502959,108,1231.61091271031,0.43999999999999995,0.6185052393519157,80
3rlzYufVjVVLv3ZFLcpfZUtXEEi1,0.3858760988262691,0.2663889840232357,0.2130279367815556,0.016666666666666666,0.40000000000000036,309.35130436938744,120.0,242.21950758406615,889.8090909611095,647.5895833770434,3.265589476615176,0.30526279098277925,0.3394612570951177,0.2443227266524852,108,-113.0432006261683,0.5,0.4329212993511797,128
3xCaqfcHxRQxuOlEzXz3PNcHODH2,0.5928991088481389,0.4826442511559545,0.30454972299679306,0.0,,,120.0,60.92083333876849,764.433333337307,703.5124999985385,0.27779387884014445,0.3466490084932668,0.33250085737524715,0.2713574376649324,108,480.46920634910225,0.12,0.582652140211737,69
4ySuGdFDDmaAr6JUXbD4UIY6BQ13,0.4997472792858743,0.320319080258966,0.7361077981222393,0.0,0.0,100.5868731563778,119.0,,,820.7523364485982,-1.6109873073519834,0.30547606923136283,0.28889848613813585,0.2418755596624492,108,1518.2124999999878,0.27999999999999997,0.6628973906692273,82
50R0P1MIMvRvK1qpqfGROchII6R2,0.46362053682440396,0.3865093952655755,0.41671055780091315,0.0,0.0,-73.26495716714453,120.0,591.8147617362795,1393.1499998569489,801.3352381206694,-4.243266934591937,0.32145425424156493,0.37485787066967363,0.23283697442652634,108,54.758847545568415,0.6375,0.42908850074289573,128
5OOi73igsahMZ5IVKQwwyhnj4Cn2,0.4425388734646153,0.3387773061887526,0.4460097369955067,0.0,,,120.0,355.69433962288406,1182.3000000002794,826.6056603773953,-1.6583136337361837,0.22839882526346014,0.23027872888224432,0.1656492092990857,108,709.0034562212325,0.15999999999999998,0.5609455325895688,70
5rXSa3anB5ejmFrnwUsTB82byup1,0.3731140085041929,0.2501941075356021,0.5377995761771992,0.0,0.0,-297.08991596610633,120.0,,,852.936448598137,1.4272252207030804,0.33634733226748365,0.30316978393649907,0.3071134559525561,108,192.43237858028692,0.27999999999999997,0.4057880684250203,85
5zxa5CMLGQSSonWOXqXf0QNS3PH3,0.44997577643872655,0.3646832740400025,0.2951634916500773,0.0,0.0,-352.00924376579894,120.0,89.35660373264886,724.7999999523163,635.4433962196674,-1.3769467601903402,0.2812258185295782,0.3618796543931655,0.18576050740866187,108,616.4149631052046,0.31999999999999995,0.8735726394290938,87
62fAfeQc27bZelkPX7G54T3gvci2,0.33432625295576757,0.24088168222852438,0.26096012602109425,0.0,0.0,345.06134453763343,120.0,732.2447619047637,1743.5,1011.2552380952363,-0.24165179236920376,0.3501783559592048,0.40767837587422956,0.2568021755960094,107,4341.296516393601,0.23999999999999994,1.0575297316424717,70
6ABZuv4jbjgE0B8TeyUk6nwVb122,0.37929246380328985,0.23066349514515347,0.4075473606520213,0.0,,,120.0,,,1050.5719626417783,1.821807795737477,0.21113879986192596,0.26117800602130264,0.19411202119754223,108,1172.9864934654977,0.23999999999999994,0.4213034029015381,88
6WFCyGwk71XLPBmbe4Vav3eotVm1,0.47448031676027064,0.44623521295904567,0.22066496360239565,0.0,0.0,409.8833332404322,119.0,,,679.1373831891568,-1.0955562615214465,0.20329033604537983,0.2439555404815936,0.20527408441219103,108,778.837704917586,0.27999999999999997,0.5327461984045171,69
7cvQFrzIDEVAkFCcGAHZPUvJ2MF3,0.47490218711657495,0.30488395792280043,0.25055033857225667,0.0,0.0,670.0161016674365,120.0,,,1132.4915887774707,1.3272834243062477,0.2388570215365647,0.2022630735887411,0.21105968566865307,108,493.3920634994431,0.27999999999999997,0.32180224719817985,76
80UJMJbCOMgs6YVpsMgXfYTzw6o2,0.37499534028132325,0.26781821302193787,0.23872081752948635,0.0,0.0,180.11478260805745,120.0,,,742.0355140188378,-1.6486157478313468,0.22201050694169167,0.19928922853683925,0.20429950602523964,108,747.9700000000498,0.27999999999999997,0.75793073518627,71
87w5Le0CgZhSfYAaOH3Xd2fc98l1,0.3819570636909347,0.2935048998436885,0.24532023796582839,0.0,0.0,120.0593220335511,120.0,,,1362.1542857142786,-1.4587164546541438,0.3203909188533402,0.2965769979209539,0.3542746386905798,106,2086.8409912375405,0.44000000000000006,1.0798374669305058,128
8bwaafIhKVMNBoHaXFcY8HirS9u2,0.34467474876539456,0.21349659557131084,0.2617471584353322,0.0,0.0,343.4864406989792,120.0,174.2704762788045,837.8000000715255,663.529523792721,-2.696314783815644,0.28234905520409903,0.33620384547253945,0.27354429553944765,108,1448.0111110872695,0.19999999999999998,0.7362717946863087,82
8cOQBMgQEYSlJ4CK60pFMmBVEBV2,0.36486357491545507,0.23321114354358377,0.2791953662870047,0.0,,,120.0,-398.78396263662376,729.8999996185303,1128.683962255154,-6.050708445402565,0.36341418987986324,0.3562778960357506,0.35077402788900075,108,888.323602485854,0.27999999999999997,1.063443628126556,98
8mscvscxtXf7EbbLqCyy4a4pl2q2,0.42188017794395555,0.2928476834441535,0.43002886000747387,0.0,0.0,212.694513277459,118.0,,,1056.0467289719627,-0.6395068029055866,0.33109535927482986,0.3188930775351122,0.35152384053714086,108,1127.4615835633097,0.32,0.45674095931727554,74
9Xz1RIwnPXgyRqmucudW9VeuDnq1,0.4694529759022777,0.4167224090820989,0.43891858175648174,0.0,0.0,529.0897435897407,119.0,829.303921568629,1994.3333333333333,1165.0294117647043,-5.64171848735346,0.39172722155593714,0.3776400157725555,0.3756644258809665,106,223.09289617488912,0.32,0.5077967386338554,71
9l7DjYLs0XdgwykPZR5E01KTZfu2,0.4445734417950126,0.36160062256363434,0.39429579991581887,0.017094017094017096,0.3333333333333331,167.85495496977546,117.0,107.20256403279609,896.733333269755,789.5307692369589,-2.5225506683898664,0.3069059759690317,0.3728274676595798,0.22800434758559676,108,2711.1746212316284,0.27999999999999997,0.9797932155725778,75
A9AEg0g6c2P1Bk72HLmnK3oWJ9B2,0.40085649658350136,0.23735548765379383,0.3017452910709113,0.0,0.0,-136.4111110512008,120.0,,,854.054205607031,-6.061623003706996,0.39252192150815457,0.46186979605344713,0.2637944054355429,108,912.9474038633016,0.36,0.7042065333455814,82
ASGvwW80q7VY7xFaLGZhVuErUQu2,0.36469713488845296,0.2513099313461857,0.36698237090181085,0.008695652173913044,0.33333333333333387,824.2151787905468,115.0,378.3070516097239,1236.5666669209797,858.2596153112559,-1.4057776823759203,0.21767184708041173,0.21972019931696946,0.1383955583599321,108,467.92158732035796,0.32,0.5785160171664268,80
AUKCfn4HzgVB7m6LNnh2gQb7G5s2,0.49009264431992644,0.3974450888317473,0.46281876422098933,0.0,0.0,976.8466098753072,120.0,48.48679242493972,996.0,947.5132075750603,-1.1580085595901395,0.34880622579300935,0.335382238284758,0.2786040040854641,108,2030.849931589218,0.5199999999999999,0.9884850363474853,94
AsXBOflrszVNKoFqbN61bMJqS0k2,0.31588581627732787,0.1894291421840259,0.3052777306491395,0.0,,,120.0,642.945388354144,1387.625,744.679611645856,0.690672683550878,0.3239716361451861,0.35379834104613206,0.31106427939882175,108,335.79571429973544,0.5199999999999999,0.47683868211460745,105
AyAnuCaltBbpEYbudoyNzTvXlcC2,0.4659879520163731,0.4035350626727523,0.5368549206291653,0.07368421052631578,0.5833333333333335,287.69759036935716,95.0,574.9252427338976,1563.7000000178814,988.7747572839838,-1.8856371948743875,0.37915476693855266,0.41369727471311774,0.3316378593150352,108,2169.036742084193,0.44000000000000006,1.0987182989803874,112
BbwUTWswjtPWhb5DvLAmh9Hdpyl2,0.45615645215607653,0.3429122715071712,0.548674802492811,0.03389830508474576,0.4,175.7062962963414,118.0,116.59811320745177,936.8999999999068,820.301886792455,-0.39748135342494284,0.315699649421415,0.32605596839458495,0.26361365058996544,108,-3750.671768707436,,2.778633497804327,128
BcCTlXWx6ARh4rBtkdWRgZH3C7H2,0.3871091558969008,0.23634064759325193,0.1996408269714243,0.0,0.0,249.33445382518903,120.0,236.71333327634,1193.6999999284744,956.9866666521344,0.5933969123838866,0.2535569900155447,0.18350515621001545,0.20900629488138717,108,265.1718181761828,0.31999999999999995,0.3505988707394353,77
C4HWhqUIJ3Rl6SboyJGqlrXFAJJ2,0.4390835338847935,0.23204894745855376,0.17845083964097,0.0,0.0,-5.211864364349367,120.0,850.113207497687,1698.7999999523165,848.6867924546295,0.7293128276852932,0.29207371184856395,0.2932893348803481,0.2683021399863117,108,1094.408586891057,0.36,1.1266662307689561,105
CDEoAyvS8feXLKMKsaZah9agEhF3,0.42258172124917504,0.29182635140378776,0.359148556007185,0.0,,,120.0,,,832.4383177570041,-0.6815783075799747,0.289099633949268,0.3371134661890007,0.1593011081825294,108,7448.190983606657,0.23999999999999994,2.1731024679179836,68
CGyTPhevTbSvVnZ8qSP0NtWuhgw1,0.4995695259250178,0.4202735377825508,0.2733860824141747,0.0,,,120.0,-226.23396212874718,826.1000001430511,1052.3339622717983,-2.5673800211790736,0.41403602977187326,0.4097963475969656,0.35117534647977083,108,727.465714291164,0.44000000000000006,0.9126972888112797,91
CUNlBEszJVRGK1jWlTaOaCqpDg53,0.49790048338790394,0.3650146976511956,0.3265671124604427,0.0,0.0,745.2478632470832,118.0,,,788.0102803739327,-2.6763602489927485,0.2893277270028129,0.29319995229374607,0.25534954383961417,108,648.9396825398851,0.48,0.5262592460454335,76
Cbkx2NHyF3NrebzXGqNgSfiWent1,0.37371574111077127,0.3051685802660284,0.1165679420635451,0.0,,,120.0,297.74150942828294,1144.5999999940395,846.8584905657566,-2.241764313136634,0.25519662641055313,0.24902030530242256,0.1978726945920111,108,1330.460887095921,0.27999999999999997,0.5867084006087449,71
Co587hoelyeANqFX7AYvuVQW0lZ2,0.4538436301375022,0.32304823419850326,0.21902062618312623,0.0,0.0,504.7579832031947,120.0,516.8349056395717,1158.399999976158,641.5650943365862,-0.9056505844218149,0.3292170891016272,0.324432962733127,0.37099884501126135,108,841.9175757565282,0.32,0.5928384178402679,82
CtJe4bZZnYUBNrcPk00d3YQFSGp2,0.37849056328879727,0.27172278001485534,0.3519031280098289,0.0,0.0,60.24568965518051,120.0,,,791.4289719626247,-1.0640475180826108,0.2386053334114638,0.25471397045395905,0.23879873305985266,108,264.96954365075567,0.52,0.5844120193691817,80
DAKDKPH698P12JfTbbjemLI6PIH2,0.3791627733433706,0.14037008078442637,0.2441725517313695,0.0,,,120.0,,,632.8392523354458,-2.4328311514353667,0.20592863130589323,0.2624838385564825,0.1297339367966353,108,1451.3319047581583,0.27999999999999997,0.8661096576556627,86
DPvStUYSmohmXwFwaKRqHv89R3k1,0.4456861091207167,0.29323234286304267,0.361298039238732,0.0,0.0,465.4353448090882,120.0,155.65128204761413,1141.6666666666667,986.0153846190526,1.369079393670106,0.3384176186093345,0.3480368658853614,0.32595443167400495,108,1457.0847457431805,0.11999999999999997,0.5409631635560571,63
DaRehVxIOhXtEtUExdgvUl0mKcx2,0.3379635838698311,0.25118342701991025,0.5008893472127337,0.008695652173913044,0.4999999999999997,258.7867256922532,115.0,477.2660377565421,1716.600000023842,1239.3339622673,-2.75073531621032,0.32995524095737444,0.2868142172609577,0.31705081202762897,108,281.47720734673067,0.6,0.7320551849533342,128
Df83JuPuJkXqTGbENhM2gw5SJM43,0.3424087049504027,0.20053672816144105,0.45811782152412117,0.020833333333333332,0.2499999999999999,710.8568181818146,48.0,-108.3359223300697,988.4000000000233,1096.735922330093,-0.36999111985432814,0.3543127308845436,0.3129438963452588,0.34663476131269705,108,691.1600000000092,0.32,0.4730697806718242,88
DxSidjznjVSNDJuDqqGgxpMEGtw1,0.35074253410643597,0.26834270619798656,0.42194971903353556,0.025210084033613446,0.4285714285714285,372.0758928741727,119.0,,,1103.2775700849907,-1.6589189729061593,0.2450342981748313,0.2263283382843267,0.23402141286895398,108,597.1661202177977,0.23999999999999994,0.8309172387426054,68
DzB19GqCB7fyrlEPexogWkjFzEx2,0.5011591589865443,0.3551235725142886,0.5926957086633959,0.0,0.0,687.424561247491,117.0,,,1237.1828571364993,-1.1921365544583744,0.3326479816527143,0.32387038757484343,0.3373515253848567,106,699.0615384615382,0.32,0.4615944069555586,79
EEodWwGh0wWq5f8JmzfKvq0lyeu1,0.4560990355923065,0.39569372899021543,0.4483432606100515,0.0,0.0,297.9082568807286,118.0,247.58431372548648,961.7999999999971,714.2156862745106,4.334381425230611,0.3613980595050252,0.36686862964693007,0.3138275452838673,108,1890.1402116401396,0.4,1.0700290164812387,96
EUhcW9kURScie1DwGPHqmNqotJB2,0.47059486088214525,0.3190319876218845,0.3174170260886355,0.0,0.0,-8.751785725355148,114.0,637.1396227332782,1762.9000000953674,1125.7603773620892,-2.699767792303114,0.2719031095812631,0.2973730300840613,0.2590339111103873,108,270.334674906989,0.6666666666666666,0.4639403646018335,128
EmfmKFDgWJdW47a6CNTNjnbYaPh2,0.3925835129953413,0.2688441312983775,0.33757909130215036,0.0,0.0,592.6350426694266,118.0,,,901.5719626228386,0.09502901376084386,0.26238132378788737,0.2529105042829479,0.2324187902420576,108,1480.5142125683467,0.27999999999999997,0.5792978710937288,83
EoToosG69XMp4LTYdB6sB9WTrv22,0.358378175532669,0.3084586577346876,0.21461084103769065,0.0,,,120.0,187.72358461146075,913.7999997138976,726.0764151024368,0.27143412765987124,0.21348134267010652,0.23495806884626874,0.24067154693769435,108,2267.450819565299,0.039999999999999994,1.1632592353077247,65
Fz7EUjZCLuUBxLDUVtN6djaBTy42,0.39470590765909475,0.3378271851932924,0.1471742347238622,0.0,,,120.0,,,978.9728971942563,-0.8283583826086603,0.23177007583126627,0.2831125835583934,0.16741657993759,108,1111.5158385204973,0.36,0.8874335540062046,84
G1Ff3XYUZMRsPafyEQ80ussnVlf1,0.4115568140701196,0.25464937340476945,0.3497920579738101,0.0,0.0,140.1259258941368,120.0,,,969.0336448578076,-2.9431808359756326,0.2598647642753475,0.2626020570596548,0.257762976266673,108,454.25663864919784,0.4,0.38741145881401007,128
G9VruXninjUdE9czK2DambZl5li2,0.4158060230811884,0.29947199727605933,0.5356438667828681,0.12727272727272726,0.9999999999999996,11.74404761906112,110.0,344.6891025641047,1093.3333333333333,748.6442307692286,-1.6389297363830744,0.359173283844999,0.388310997473448,0.2709111095039938,108,756.2915942029108,0.48,0.6401461115669034,99
GDZGRW51kbWtAdUIHCtEd8sAtqY2,0.4739901677924884,0.3088258760504568,0.34784966896015873,0.008333333333333333,0.49999999999999845,68.06949158644272,120.0,,,953.7345794517303,-3.014960589396682,0.24267876500546184,0.22659238374657242,0.2772654763922615,108,809.6848958643773,0.44000000000000006,1.1097529333369989,83
GE4hogtdLdTFbNasENgtm6SO3hC3,0.4260377986076704,0.3835647391540604,0.19827365771652036,0.0,0.0,973.7016949113142,120.0,183.58220065450178,1382.3666666746137,1198.784466020112,-3.4385595741756485,0.338201582425217,0.3463294460543981,0.35806646711209134,107,739.9987893497107,0.19999999999999998,0.3838076683315889,67
GEwkBw3YHaNp3TCh9YS9PKVfavz1,0.44005244178184416,0.3529945531249089,0.3025920035693382,0.0,0.0,-121.34873949780183,120.0,52.30943393651046,767.8999999761581,715.5905660396477,-2.2659526240458367,0.3047129706135265,0.33716496465582385,0.21566996566609406,108,1606.1650349696201,0.2799999999999999,0.8416374210587201,77
HSggdq91WiQp16bOj7V3dABkcgk2,0.4551653029933037,0.35066398446456143,0.39051923451277104,0.0,,,120.0,,,716.2018691524167,-3.9051856345942304,0.30815343810780116,0.3932571531584784,0.23084412516493125,108,930.1961025565713,0.27999999999999997,0.5784489253952705,89
HbydnnT1hUP3WagAy2TJAc6GqVs2,0.3583149482815634,0.28562466560018407,0.3898985916787628,0.0,,,120.0,,,956.1869158878504,-1.8078673217633032,0.23027165314251827,0.2650151814049473,0.19911428830990333,108,1386.975737699915,0.11999999999999997,0.5346610395597008,67
HyQM2xKwwuVfqidmRYF6TiRk90C2,0.37458294133867553,0.3157132164905291,0.32423126442678907,0.0,,,120.0,,,647.6971962628799,-0.3153373405289247,0.3128693104864935,0.3359150823235616,0.3008394936052376,108,1145.109722222305,0.27999999999999997,0.5988174674143129,83
IaTJhUGICmO9xcL3605RW8QHneN2,0.5196987191753935,0.3853675850201938,0.3572481485042406,0.0,0.0,237.62499999332022,120.0,404.66714286264914,1120.1500000059605,715.4828571433113,-1.5693922100804543,0.40294300524929616,0.321033767565501,0.324965927583502,108,313.7555747089373,0.39999999999999997,0.5150613841201216,108
JOBWLirr6KYf3GXJ3jPFKmd48S93,0.4851940052066276,0.387955696948879,0.6635153929258224,0.0,0.0,462.68103447299586,120.0,29.899056619630528,977.3000000119208,947.4009433922903,-2.240863097562081,0.2989663666728301,0.27700822541612946,0.30725501517925075,108,1012.9225108211517,0.32,0.6580784747110581,75
JntnHLHjYhc0xJJQALM3h9R5Ozv1,0.4606228802349089,0.33643910646372,0.3595465096003421,0.0,0.0,-377.3815789515511,118.0,137.89333333855598,910.0000000000001,772.1066666614441,-1.015929674579646,0.34375384443673906,0.4232669858585307,0.2866454494722706,108,1668.1862934183432,0.4,0.6608529085021099,89
Jp6aXC9KLjcFZBaQdZl4i9dUscl1,0.4308563483390004,0.27095456308974025,0.253667436633946,0.0,0.0,-166.91324785963081,119.0,,,736.7299065417218,-0.16854793413539404,0.3015755801997597,0.3490625664990056,0.276531187356835,108,,0.0,0.4371709214497295,60
JvrZiMHtAfP6gvQtlevYWafKy0z2,0.41779963828969047,0.23664844223260195,0.14370616676141068,0.0,,,120.0,545.4886786622828,1802.599999427796,1257.1113207655133,-1.3165699780087854,0.2899831406366275,0.27047987600141865,0.3282638353786786,108,587.5626344347511,0.4,0.3179616360068975,75
K26uNuY0VNPjJNF26wEx3bFg0kr2,0.45342854111973796,0.37074998871114523,0.26440265836172966,0.0,0.0,90.76761061944387,118.0,109.47830188670196,860.8999999999069,751.4216981132049,-3.0642549255273224,0.2776942124413659,0.2513377929600362,0.31171691468342044,108,794.8235023040615,0.27999999999999997,0.405053782622725,70
K7ykiXe6CqQUKpEzs2nYrMTVuDA2,0.3735588516402001,0.23492986032324098,0.2930453289551859,0.0,0.0,22.22222222222615,120.0,,,731.6635514018745,-2.2614471452797003,0.23217729985191327,0.28747106297522573,0.20567833524309295,108,3200.4117647058724,0.44000000000000006,1.108878561508064,93
KtKj6zUKc5Oogd2itg2jdwkchnf2,0.39882048216658844,0.2813397268461163,0.299467009645484,0.008403361344537815,1.0000000000000036,404.5194915246092,119.0,603.8679245284073,1205.0,601.1320754715927,-2.1084191352334387,0.2980857821677545,0.3382338899587811,0.2638069464256551,108,1357.283870969068,0.07999999999999999,0.5136548253102068,66
LSLmd8jENtONZFVkIpRDX665Bu73,0.5785828551869587,0.5233390673105026,0.7276674783318741,0.0,0.0,984.9708695753761,117.0,,,969.4084112153989,2.6260910685790746,0.3141431137198364,0.2666153631106712,0.20530852102715702,108,1030.9493939168528,0.4,0.4972095516953693,82
Lhv9P8ZrkDSIB7BGwooAqfu8SGF3,0.36836279063890504,0.21174383876371888,0.19073534031991835,0.0,,,120.0,,,694.4299065398278,-1.5721262345784006,0.21023756536469862,0.2290406957678774,0.21008663716733225,108,1246.6633064597845,0.27999999999999997,0.6441357596766819,71
LliUMEIsrCVZ88YFQfevan2Og4z1,0.4492119372001463,0.35858235189428883,0.36992763932975603,0.0,0.0,112.14594594589028,120.0,639.3914285713984,1206.1999999999534,566.8085714285551,-2.496636831410707,0.35548368840298417,0.2995183541101434,0.25718267044052406,108,631.0076923076797,0.31999999999999995,0.5880199433737673,97
M4Km1Q2P2oPliChDQkwl6k20FUI3,0.4530818399587826,0.32279687906004634,0.3232811135456399,0.0,0.0,385.8440681150404,119.0,883.8886791220251,1614.0999999046326,730.2113207826075,-0.8718952407220526,0.23308339746168294,0.2415111133385351,0.18159460404317065,108,2993.803346673488,0.48,1.1514418664726422,102
MMSYeiMQi3gMr4PrXQcpXzFiegj2,0.41834195537623486,0.30469860558235895,0.3999212814995216,0.0,0.0,64.38421055517688,118.0,805.6169811149814,1882.5,1076.8830188850186,-0.3108944847090156,0.32030028574189057,0.308390498035698,0.22730994099575513,108,334.72332503403186,0.31999999999999995,0.542262017925987,110
O61Eik2zvrSQLMNpFbTNEgjWwMr2,0.39394317288846326,0.24197938740376482,0.2383129983743717,0.008403361344537815,0.14285714285714282,210.40982142925645,119.0,-214.28962264188897,604.5,818.789622641889,-0.347325127379041,0.3191456418008763,0.3133845995868467,0.3370362519135966,108,722.9227272727048,0.27999999999999997,0.35410072071223603,78
OExlWyngGfPrScDYjaRcv5PIAet1,0.5197204571659804,0.37911227731816843,0.4956551688035658,0.008403361344537815,0.33333333333333304,871.4497126508718,119.0,,,752.0869158862907,-3.359984890165809,0.30940418212488313,0.3273103485973446,0.30110332011493013,108,2040.9163933963073,0.11999999999999997,0.8183273990236622,66
ORuVuFPU5idz3fMoXTGsbwToW2j2,0.35336183918833514,0.39629535144336747,0.29739547223928686,0.0,,,120.0,733.7226416884728,1515.8000001907349,782.0773585022621,-0.4636595495416634,0.3551738276755272,0.2756222818893613,0.4429554880464048,108,440.3568066901521,0.6399999999999999,0.3814693054655924,88
ORvIk1xRWIQmKuLVe6GXNouvAXx2,0.5300142017585582,0.41030542269262027,0.34665389507693434,0.0,0.0,143.05000000979226,119.0,718.7516990694606,1665.1750000417233,946.4233009722626,2.421115669216327,0.37733054506918623,0.3598989792323878,0.324841159925072,108,2984.681359652365,0.36,0.8419277625381467,101
P9bS6GGJcIXivbMWo4ibJ5jgUPG2,0.3820679968614866,0.25774624802528173,0.5487892763045221,0.009174311926605505,0.142857142857143,-189.57324930424443,109.0,780.4475728135953,1691.7999999970198,911.3524271834244,-1.5213902835600681,0.4403052181820641,0.3903463017239462,0.2785248151274234,108,1244.275952395087,0.2799999999999999,0.5878144671989645,68
PLreonkqaMeFc0UqxKUelH44UQu1,0.43979503719501956,0.26685456005595537,0.42676428710960257,0.008333333333333333,0.33333333333333304,147.60854700793573,120.0,343.2586538485036,975.7000000029802,632.4413461544766,-1.4640006134363723,0.3304527436052121,0.31695072718695405,0.38022023815333383,108,2223.477210461555,0.43999999999999995,2.2167429575890054,96
PXesLO51qlY7lJBrLdOAZiHmUR72,,,,,,,,,,1286.0050505050317,-1.0101371792714444,0.4124768759983726,0.4014184545380134,0.4054846339433626,100,292.10292353828027,,0.784789447761878,128
PkpTH7pWpEOG9A86xSloOSozwTk2,0.35155688343174735,0.26738693777637995,0.40031802891240004,0.0,0.0,175.51982759127668,119.0,,,1373.9771428539639,-1.456944735057662,0.24992024607217228,0.26494801456167494,0.21341290708563015,106,-1362.2621212175582,0.6000000000000001,2.156160363731396,128
QG6VXg7od2fHJ1SF9ZzYBqUa1FY2,0.500168913844754,0.35383626572755167,0.3703632679583175,0.0,0.0,-188.94285714119167,120.0,880.4858490595559,1599.7000000029802,719.2141509434243,2.2847647904810717,0.3633469858460889,0.34317518262411273,0.3053045756959947,108,815.3839682533568,0.36,0.5765240543732765,74
QbOEVCaZLUMOgltUdXm58oZOALv2,0.3229286384226529,0.21761359053971283,0.2686839965413305,0.0,0.0,117.58907564097103,120.0,448.90188680279925,1509.800000011921,1060.8981132091217,-1.4991230439382035,0.2791935871445723,0.26435019567631646,0.24075140719345087,108,956.8901666707795,0.43999999999999995,0.5224127425313633,100
Qg9GDwQ9hBNkDLt50CNLd4NqRlX2,0.29947448152455475,0.24400969042987958,0.36533934070167995,0.0,0.0,1067.0016950126421,119.0,,,1176.2887850476202,0.9509153214571253,0.19143793086533914,0.18895999063038277,0.16879612026850915,108,3338.514166631301,0.31999999999999995,0.8694324795411328,69
QreA2rLiUhV3YHeMfuHMPdGbpJ53,0.47397517095688035,0.3347699178073784,0.5986052182298839,0.008333333333333333,0.14285714285714282,153.77130216653973,120.0,349.5320513164386,1424.3666667143505,1074.8346153979119,2.33761537104897,0.31362158071154733,0.2734917008846658,0.24436176776397944,108,263.7889758661845,0.44000000000000006,0.4065805009537567,95
Qv0jhW3sqicqQvd7LfReAsI7nD73,0.37218961799585243,0.28573669860919615,0.2599193312567702,0.0,0.0,98.21680670776288,120.0,,,657.2093457933341,-2.8382687400609488,0.28107083791638415,0.3373157645945891,0.17146274969483608,108,1343.3478632428128,0.31999999999999995,0.665537415771585,77
Rc706mP0TSeIoIpMYH1SpRXjOxA2,0.4154026303119491,0.3012020349198341,0.44352803470271057,0.0,0.0,-466.54621831108534,120.0,134.94811282967646,1107.8999996185305,972.951886788854,2.4383232623921804,0.2870197882298774,0.2506583268013511,0.2895770972324249,108,3811.5169497182815,0.039999999999999994,1.0486492945594474,61
Rmd4rr2vGjOoLvdfYd4EdYyxK3m1,0.45315116258407145,0.3860818473133788,0.42216826716448874,0.0,,,120.0,,,934.1710280391658,-0.6524414951562661,0.2495970993965108,0.22068298853279134,0.23540239450717318,108,2858.3459815671163,0.31999999999999995,0.9468294938016304,81
Ru3Qf6pXZua1DfNkQdhbor6iJ403,0.38517939107112864,0.3105474635754909,0.35974970637690296,0.0,0.0,-282.01344537810996,120.0,180.05533980583925,1188.1000000000058,1008.0446601941666,-4.618340210254567,0.3648266094751856,0.2961386260232634,0.26823014759325947,108,1793.8928418802793,0.44000000000000006,0.8400102117743345,86
SOhR7IO689NQCPQu56SjATO8FR92,0.36641379205937635,0.2453726779671018,0.5106623135522416,0.008547008547008548,0.2500000000000001,369.33070175455964,117.0,276.2389438944183,1224.0666666667287,947.8277227723104,0.10232502540217414,0.3295165236281454,0.3196401776643444,0.25227087191356556,108,634.2278714435031,0.44000000000000006,0.547167238987564,100
SPCT9D90pRa1ihXS5jEw6vCmquI3,0.5077305017485851,0.3674927589499063,0.3099005650772011,0.0,0.0,41.43789474697485,119.0,-67.42596153934028,617.8000000019869,685.2259615413271,-0.050025432439285575,0.31865008591391186,0.35294999186568027,0.23974170727174726,108,1034.7912637016739,0.4,1.4026069006034965,128
SdDjNMBD2ZMTEwUphkohi2cZwUx1,0.49593211226984857,0.42811850722314015,0.2652635606744451,0.0,0.0,380.0855939832786,120.0,,,712.1364487977786,2.9065023431757133,0.26081794619319165,0.31900351805953625,0.16905008065895163,108,456.8988636069828,0.32,0.5379012404177026,84
SpSfX0ZcfcPLdlOENlfdfvEPwru2,0.437695450413864,0.2872099833347621,0.27651554597125666,0.025,0.7500000000000002,251.4655172413802,120.0,793.3679245283074,1638.0,844.6320754716926,-4.3782297596755475,0.26488285907261677,0.2732555985273805,0.2910966369384178,108,1092.8369175626963,0.31999999999999995,0.5561876282048992,72
ToTCRJ4EX9OL6UlJqmDkaEbggWF2,0.43243349339419923,0.35174977459434975,0.5653855352574492,0.0,0.0,1741.1974359037529,118.0,,,900.6859813076313,-3.444135663375379,0.29009030949232256,0.35279801190511373,0.2693351203955557,108,1290.019696969426,0.32,1.0577819565749937,78
UK6MLdHbCaS4xIz2f3vGdpkbBzG3,0.37867258906980333,0.26938024176565284,0.31513915964385125,0.0,0.0,102.91101694384872,120.0,145.7391025656118,741.933333337307,596.1942307716952,-2.2305965297846595,0.2559421165006951,0.2770600722510738,0.20517079917785871,108,272.63957680864576,0.0,0.6680169436974638,128
Ub7nV8F55kPruh35ZpUcKoBUyn63,0.4020396329146527,0.2698187277644356,0.4666212023252281,0.0,0.0,936.1854700950473,120.0,740.6830188747285,1771.9000000059605,1031.216981131232,0.42440396239050693,0.33370206398632224,0.2885421184488267,0.3474261552537781,108,881.1015151515926,0.36,0.5548232581188419,81
UbwuSMtBsHdW3Ji41opk3GInMqi2,0.5048880474713124,0.4285046408937267,0.4168681506645863,0.0,0.0,-293.57627118645644,120.0,71.79528301964808,820.8000000007451,749.004716981097,-2.4592306890308224,0.2412716904183346,0.29209351588282045,0.19196967862578024,108,365.70082918768287,0.23999999999999994,0.6994027716778947,77
Uryn3G6dNMRdHjTi9jSNnuXQYTf1,0.386951364720843,0.27987909333431354,0.21524585663142268,0.0,0.0,105.39745762712187,119.0,,,801.2299065420874,0.6959953596440936,0.41442519974882464,0.33365854230491543,0.3228731335687227,108,344.0444444443676,0.44000000000000006,0.9465381390690235,76
VwTymW8T68MfpnJvZ2X97ILqDWS2,0.45971769558498377,0.41548573623818036,0.4550105873049729,0.008333333333333333,0.16666666666666652,-70.44561402630393,120.0,-54.22305826264096,919.2749999910593,973.4980582537003,3.20921170040268,0.35032862502582207,0.4154497000589637,0.21295580455266647,108,516.8249138936519,0.4,0.3560267565407429,81
WKzqsLX1lNVSdbGgYTTVGtFwsrF3,0.38561819167060435,0.27657184704237964,0.4823332859260804,0.0,,,120.0,,,1005.990654205602,4.002704633598698,0.32515854436542047,0.3803361417024897,0.2918981855554946,108,922.2267857142974,0.15999999999999998,0.7233184877948736,88
WbOfW9KmUkPQK8o5hlHJnJFdpp92,0.41705892952212337,0.21198581688929735,0.2508357296325945,0.0,0.0,241.81293103625546,120.0,532.4499999976274,1699.0499999970198,1166.5999999993924,-7.349530910806137,0.37887652999548005,0.3740755353132061,0.3028293084597083,106,663.1220588224776,0.36,0.4677840016549354,98
WcTsIpSoEhYeIBSNjAbbdaNSBya2,0.465424336536096,0.35290442801450234,0.22264286434591868,0.0,0.0,-228.46810344619485,120.0,,,1054.5747663556972,-0.46448113496624344,0.25086987169989394,0.30909892378973425,0.19820743800313964,108,287.7066438369452,0.5599999999999999,0.35593000109699435,94
WeHQDy9BWldTlaQDVVlsJNCqwxA2,0.41191218469982765,0.2714936735061162,0.33325351237712864,0.0,0.0,9.4310344827893,120.0,,,904.9439252336426,-3.118171247095575,0.3424861968376474,0.38983119723492954,0.23443068541462503,108,455.6221153846034,0.44000000000000006,0.3828837055537405,107
Wfo71fsX1VVfPZnzhT7HEYBTwnq1,0.39384322761461554,0.2450511296129552,0.30083931149666354,0.0,,,120.0,,,771.9140186800021,-0.325411698963612,0.24623343422836866,0.26250332578315466,0.19834681789364278,108,1309.9984463614933,0.36,0.7434667520332311,72
WnC6Uscb5VMIr43GASKiUCO3AYH2,0.5701272817677043,0.42915012260041746,0.33306473960028904,0.0,,,120.0,,,649.4046728970292,-2.0282724184602214,0.2803386585536247,0.3103699051497478,0.31251854124005385,108,1449.0054252237258,0.23999999999999994,0.7762859423040693,74
WqoZv41KTtTCuPKBPyClregrKAi1,0.46631303621470455,0.3392922239432351,0.5468769676077025,0.0,0.0,239.94642857139115,119.0,,,924.7102803738416,0.438341481533178,0.33553498227740214,0.38275792521949586,0.23715552206624865,108,523.9787644787937,0.2,0.4536848121587866,89
XehZHBpwr5MYzUXkj0FAYCsFG922,0.455098061149741,0.3318953131588303,0.5788775981220079,0.0,0.0,576.3369747881131,120.0,83.31185897437331,790.1666666666666,706.8548076922933,-2.642399917058534,0.28740961258718717,0.30619246532259975,0.2436526800975477,108,563.6288767970732,0.64,0.6774737942255187,115
YEU5ox3jteVINfdSTg5ymqYcS9o2,0.46593705239663447,0.34267621211369265,0.30293885032005163,0.0,0.0,-173.04406776317091,120.0,121.54070511001805,730.2666666507721,608.725961540754,-0.43090469205079385,0.24573561108808262,0.20951219885439948,0.2209130630822855,108,2099.396904769824,0.15999999999999998,0.6804937930291808,68
Yco8O7tmHlbsUBfKW2ywcZByGO32,0.40401747366310736,0.3450065482595315,0.33989114268360415,0.0,0.0,301.54529914769364,120.0,232.62830187661473,1169.699999988079,937.0716981114643,0.9699509313320632,0.3245613705028642,0.35984303005326446,0.22396692173507649,108,1390.894086017724,0.11999999999999997,0.9035373590863173,66
Z3GikGkUkjMOa6UK1xdIDvuGRHp2,0.44964845465880177,0.30446473877453156,0.25191667501640286,0.0,0.0,366.2686781376259,119.0,201.5066667295638,984.3000000715256,782.7933333419618,-2.8903777901138237,0.25144141714221324,0.27023321078626356,0.24563370325825837,108,691.1115440128515,0.27999999999999997,0.6148055971297876,87
aM2995jJmJWvr6cneaGH58HauIg2,0.3450308364655645,0.2209949357868186,0.2260813862704723,0.0,0.0,619.6457627248966,120.0,254.67941175547298,1279.699999988079,1025.020588232606,-1.8428723326439922,0.422304159558726,0.41197368642712684,0.3813054234766573,104,339.8716269881718,0.4,0.3504194212849987,87
afdTz6deeYWf1qKNdUpKAYKN3hz1,0.4323311361724775,0.4048375344552133,0.4042204407121674,0.0,0.0,580.6224137899176,120.0,324.99733009807835,1259.2750000022352,934.2776699041568,2.0394984855473144,0.3787573052186807,0.3958615673089888,0.278022681010772,108,-55.26336554030331,0.7999999999999999,0.5247621802674901,128
aj2Ivskb3BgyvBNTLIKlSZG0Sq22,0.4453366589143771,0.3812085158134297,0.2436030732613607,0.0,0.0,357.34869564927135,120.0,,,812.6457943882898,-2.923393819793222,0.28644707011832926,0.31260467642908735,0.28121072724736806,108,124.32499999949277,0.43999999999999995,0.39981748711836157,119
azdL1gX79EVd9iepyCAVQrqIaQF3,0.39713258943320645,0.22998707919964054,0.49430984642156695,0.0,0.0,298.4559322034356,120.0,49.11238095217959,786.2999999998137,737.1876190476341,0.3505829110976119,0.25903020035155233,0.1979779005257595,0.2984328320625967,108,904.239705882421,0.36,0.4682057498751286,81
bXpFswkI7TfIfL6G4FqWrbaxTGx2,0.4672457589605355,0.3277010156963945,0.6042908281263893,0.01680672268907563,0.1818181818181818,256.584848484869,119.0,114.92548543692078,784.3750000000291,669.4495145631083,-2.1133450325119147,0.40693851672646586,0.4353696509848817,0.26885021912184387,108,318.4557657657757,0.27999999999999997,0.37990768907843436,90
biQ16yPcCKSkJQhSxUKcDc8gm8I2,0.32288282996350176,0.27685412337527415,0.29562074000873984,0.008333333333333333,0.12500000000000003,220.43303574834545,120.0,,,1118.5869158851767,0.21005194021603496,0.2123217889716964,0.17994019902820757,0.24078818448749192,108,-103.05846774377801,0.4,0.3875315075960559,128
btpcu1rB1JeSTo2upeHGPdv8kYG3,0.41997285109757804,0.39759508599609183,0.545964737386884,0.0,0.0,-178.8370689482523,117.0,,,984.2280373796125,-3.351554579227872,0.36825213530276313,0.4124984682466012,0.24165343822055446,108,1798.8033333546587,0.31999999999999995,0.8977992068975309,70
c0hRe9PCPPZs3HWFqhIQargNlp52,0.3602003580447224,0.3064194011567916,0.4949516061293836,0.0,0.0,370.84145297963414,119.0,22.837735661920647,972.1999998092653,949.3622641473446,-0.1953580603276044,0.3244438468476172,0.2923261399479559,0.34586327746978207,108,832.5177680766724,0.48,0.45469807563767944,85
c8BtRUVPPPZHjyhX2rn702NoUld2,0.5403830030681289,0.4574434281813377,0.5441702999711759,0.00909090909090909,0.24999999999999992,-20.217133940380336,110.0,,,861.0345794385838,-3.6998147468896843,0.3074050947884365,0.3041170397268993,0.15978701938783754,108,396.4065789564661,0.32,0.9818310780322076,96
cC0BEsQjfrcuCyoaOas9zJT0MNs2,0.3521914631594029,0.2753191572496712,0.254813415330604,0.008403361344537815,0.33333333333333304,422.2128203985019,119.0,,,988.959813075645,-1.3056341242054066,0.2714874276712501,0.286378237522955,0.23259002823710687,108,184.0823809351241,0.68,0.3465294546086783,120
cEIs6U87xfbSL5eFTXDK77MmvNf1,0.42981994226120906,0.33169261857988036,0.36492681153332723,0.0,0.0,68.74761065677194,118.0,,,870.1046728865008,1.0639794125563762,0.3732238881729982,0.42756557976734627,0.3678784058977183,108,1387.7552326640418,0.27999999999999997,0.8152790481876018,103
cUugYJoOmOSFc0Mh5JD0ZXJrYN52,0.4475179522658502,0.35961719896027056,0.3407922346070555,0.008333333333333333,0.11111111111111117,150.76726726762536,120.0,397.7429611655947,1075.2750000003725,677.5320388347778,-3.8237648473301706,0.363925081263623,0.3590083479472533,0.2970456476679379,108,717.6172976119569,0.19999999999999998,0.8222736929332402,119
cec6NLR2ZLVVw6h0TEKSNIH11v02,0.4170225901160423,0.25402894669940346,0.19763809096072787,0.0,,,120.0,,,853.231775700946,-2.2210592857280065,0.26254662850263477,0.22940521702088018,0.1665610631219592,108,-61.556527347777546,0.19999999999999996,0.4737611757081089,128
cfoKz0AGhvYmW0DJmVKAZ01jh752,0.5369769008988535,0.39594079050175357,0.27412697215629955,0.0,0.0,-129.7931623881699,119.0,-154.63207552230585,491.2999999523163,645.9320754746221,-0.4499528886690725,0.21342301115441492,0.22956425039971307,0.17468827678619822,108,308.13132865628984,0.27999999999999997,0.34338099048068604,77
d9rwc0NXArcNlJvFsgKhQqkGxJq2,0.5173037953160323,0.42129753038976175,0.5881353257387727,0.0,0.0,592.5503571470933,117.0,,,842.1308411220524,-1.931973289607618,0.28636065450399134,0.2860731225341706,0.22438910370322296,108,1339.1893333379428,0.36,0.675077894746643,88
dnkEqKuvjoQzAQm5yXlrAOp9ZlD3,0.4701470164581787,0.33040092166377416,0.4713338243995022,0.008333333333333333,0.20000000000000018,347.1747826192691,120.0,,,810.8018691573187,-2.2928789115660564,0.313466190852453,0.37268021857702427,0.26056928253081224,108,4539.846050667869,0.4,0.9883793902009416,73
e7NIVznoeNMC7bBejXnMVvFNPfx1,0.4204507372140974,0.3785874697223992,0.37026308035759964,0.0,0.0,1599.5285713923076,120.0,1067.7990566171566,1953.300000011921,885.5009433947644,-4.269339814797593,0.37062036236742746,0.37368022345291774,0.3406664109950381,108,3736.8183333426714,0.4800000000000001,1.3601259598931872,76
fEq0OghbLpfD1jigl1Mbz96aMbg2,0.5346817299212958,0.39623070508405583,0.5050449150878707,0.008333333333333333,0.49999999999999845,167.77033898171226,120.0,397.91450980659215,1055.2400000035764,657.3254901969842,-2.3114032628498165,0.4337288668448331,0.4534427925432326,0.48851686718623444,108,948.2010822490311,0.48,0.7330850025929909,88
foaW7wtvY3XLNdguFUK7OvOefP93,0.36949832152935613,0.3037466451938194,0.24864840777724478,0.0,0.0,179.90932203395096,120.0,,,845.0252336448556,3.847122302158143,0.3011161071275302,0.31248178124109577,0.29503162927636406,108,1039.722885572119,0.27999999999999997,0.6320979254001469,77
g2G9l3no7RbeRA9a1W3JnfegTnh2,0.47370359525015654,0.36505407892252417,0.4215879732934806,0.0,0.0,79.6171738673811,119.0,178.47128709354024,1282.8999999761581,1104.428712882618,-3.726381833195827,0.4573816800849867,0.41829434709018265,0.5180694380600069,105,701.9235431286561,0.4,0.7837543183292984,101
h12a1QYNpYbl3T0Gj1PxUz3EnEx2,0.40877225995033695,0.2936698363869272,0.46417171386268835,0.0,0.0,-4.0,120.0,306.330097087363,1183.9999999999854,877.6699029126224,-3.010427963467739,0.2820147785207803,0.27848575430768546,0.1312409032942346,108,2089.8273809523844,0.24,0.585266169325056,72
h5RYP03wJuVN0xo7qAR8CKFxLaj1,0.38351105519046225,0.35016347195911296,0.3357045088748377,0.008403361344537815,0.25000000000000006,490.4973912918049,119.0,261.9830188543167,1282.699999988079,1020.7169811337624,0.7308520621945926,0.3200109796567056,0.2590084325539371,0.29239736515754233,108,842.4432379287134,0.4,0.6571102035272413,126
hOrA1ssI5vaeeeXRJhtjrGrqHQn1,0.45959694220873554,0.38751478528077554,0.4909308125181161,0.0,,,120.0,,,944.7644859813056,-0.09970187006207477,0.36073578104604254,0.36416205428464715,0.29875892898249096,108,924.2787878787765,0.23999999999999994,0.4423982306854922,74
hrRr560eFBNwJ0CcUjCqtSD8TdP2,0.4380979569160931,0.329093591956361,0.3894179469934591,0.0,0.0,65.48803418782404,120.0,,,668.2710280372787,-3.513566408162955,0.24240681999738134,0.3276368300650314,0.15824307227129933,108,566.5595238097012,0.32,0.48663103301914545,87
i1tBstVkNiVP0qro7TgGD08IGGa2,0.46070034410249233,0.2902803395513238,0.4688234364294024,0.0,,,118.0,458.51714281354657,1636.7999999523165,1178.28285713877,0.7185289366251614,0.28047303052009565,0.24907954641375574,0.3096621037297118,107,901.6447860722874,0.36,0.46653064756241924,80
iKVZi0Oo96UrMBhPQMHWFcf55uA3,0.45510384889132294,0.31691507337302127,0.3560613407807282,0.0,0.0,-58.026548672645276,118.0,30.927184466011568,1252.5,1221.5728155339884,-4.584666025357575,0.3410867992028813,0.2874169124872635,0.36195847179092916,106,847.9745762711163,0.24,0.46776286326360705,68
iWsc4pghIEWOQUZKuQJMfe516UI3,0.4386810056244135,0.2923260297403898,0.3590845647856915,0.0,,,120.0,-26.82619047221681,612.25,639.0761904722168,-1.9878631065394692,0.3228555104617471,0.3751135803341032,0.2155352126882285,108,1567.386764713548,0.27999999999999997,1.1995121158635547,80
iZScIvzhvAdvlsBXU5D8IHwvG6Q2,0.36763393159186547,0.311775503098047,0.43093077338741,0.0,0.0,-62.27711871821998,120.0,165.03047618979508,1553.5,1388.469523810205,0.6134064580756075,0.3231458662644084,0.30415100256931854,0.35429278922770713,107,2251.2283132561856,0.48,1.4184875864487234,126
idP8RVfm74N86O0dszLXANIpjXv2,0.49913192176714744,0.430314454751274,0.43223715036207827,0.0,0.0,-74.49396551186317,119.0,71.04523808331714,1003.4499999880791,932.4047619047619,0.9475901200119139,0.2985216543792583,0.30374000782519783,0.3221986171130155,108,935.8111111115045,0.2799999999999999,0.47797016594691577,74
iv9ew8Ci8lOzvXFiJw1acJfuRAl2,0.47694641301964946,0.40246031325536863,0.5987067849967463,0.008547008547008548,0.2500000000000001,56.12280701758823,117.0,446.9714285714374,1452.0,1005.0285714285626,-6.555954027621583,0.43487898819595855,0.4269871821895334,0.3770162593632676,107,2043.0846774193333,0.4800000000000001,0.6840169357654028,79
jpklrtZKDdb3UbsoQ7Ho5KuR5yb2,0.45809645300566015,0.34445268255466377,0.2594029795400964,0.0,0.0,-394.72689073326205,120.0,392.77238096225824,1500.800000011921,1108.0276190496627,0.6922962917609411,0.2832537922304548,0.25180656417991376,0.24236713043376362,107,1248.4364406744303,0.12,0.45824930098742356,64
jzdk8E3tVXTXIozlfK5oeEb7wWp2,0.3635152728215624,0.26902746962610363,0.19322612311454287,0.0,0.0,531.7330434778463,120.0,,,887.8205607449897,-5.035244998323984,0.3317648454565908,0.27339428742884975,0.41728104563446317,108,32.58931158591008,0.2799999999999999,0.3158240769914485,78
k8j7IpYfd8dYB0L1qyLCcrwoFOy1,0.5086264155012182,0.43938850340329094,0.4167514270185978,0.0,0.0,23.0452991306272,120.0,,,812.7158878272938,-3.5901550307805916,0.3190732306937809,0.37463795094712354,0.2759496942935757,108,867.2789581121535,0.2,0.8024097524497532,101
kI0YdycDU0X5hcoEPjEON3Ionyd2,0.40187227685954385,0.25853976223190844,0.5249035322699236,0.008928571428571428,0.16666666666666655,497.83490564257113,112.0,,,891.7392523388996,-2.4986295267722833,0.3870514473362078,0.44525527471778803,0.35209886209125696,108,1424.8333333172147,0.36,0.8750904110867799,87
kR2rCtaPyPaj7YMizKUDn5xL2qx1,0.49157805288608175,0.3208664855598349,0.47622351224951676,0.0,0.0,139.14444444449236,119.0,194.23205128206746,1061.1666666666667,866.9346153845993,-0.6885053123814036,0.3211391828313915,0.27149300219860173,0.22532546683213986,108,677.4814699792676,0.44000000000000006,0.6536928943130909,84
kgSRatooJJfDaMZ2yIURqb8aJuE3,0.41178155088901575,0.256430469967281,0.2520696038361742,0.0,,,120.0,1822.936792443806,2769.39999999106,946.4632075472541,2.3028452381506166,0.4612629012647604,0.47779284198037175,0.39482531372937346,108,582.8,0.16,0.6762948384204756,67
kxerHPSL3bQjD74HhiebYf3blPr1,,,,,,,,190.79245283019304,939.0,748.207547169807,-0.17756267621353464,0.26023174916000097,0.25512172979587056,0.24553298795394693,108,-277.9411919831192,0.8,1.0255430269323986,128
lHDkoPQu5reNCO45npeYSS9eLQl1,0.44836396382679855,0.28613295185342835,0.6566199622214431,0.0,0.0,775.8720337819245,120.0,347.98761877786546,1117.7999997138977,769.8123809360322,-0.9855820243526078,0.2742996914733787,0.31506842040355904,0.278623633453126,108,990.2347944991229,0.5599999999999999,0.768529632124585,109
lpzDdvuMkKWkPxu6xeclmdctEp42,0.46151853284096456,0.37230776706370117,0.6337082634584927,0.0,0.0,222.14529911880823,120.0,,,838.6037383324632,1.397284702584122,0.24467118741232763,0.2917339616756347,0.18541521631328517,108,703.7776922697549,0.4,0.6201976805516674,84
m69r9GQTk2b51mvxrFLt4fZeJi52,0.44597103472660093,0.3708965798019615,0.21217693520412476,0.0,0.0,-15.905982905983933,120.0,-37.79999999993845,720.0000000000582,757.7999999999967,0.9014584941423144,0.3045532435949151,0.3462055850790244,0.22337169510512786,108,1081.0764163372514,0.31999999999999995,0.533818451119615,81
mUZzgdWKnPb2txOkJg9FHgqX5792,0.48648369890038246,0.3540234618771052,0.5774390972530823,0.008403361344537815,0.49999999999999845,506.53504275307705,119.0,,,1092.4915887819272,5.567725216861356,0.3647966403235831,0.4038231173739769,0.3099239662203029,108,431.3454321094207,0.5200000000000001,0.6109882381881705,107
mYRMPGfR5gRSjnp7ojjD5sXo7Jr2,0.38119540336929797,0.2420612065215519,0.481546512301975,0.0,0.0,87.3709401422077,120.0,691.579245261426,1449.399999976158,757.820754714732,-0.15405144641937507,0.3994688675123843,0.44548554599567547,0.29574712032948197,108,1757.503015854056,0.2799999999999999,0.638052381023516,74
mg2WZiRBn4NQDKiMK43Y8dBqyG53,0.6408696703307031,0.5848159609653227,0.6683443148643962,0.13402061855670103,1.0000000000000002,-168.39468864470848,97.0,149.50943396226194,934.0,784.4905660377381,-3.877084667413513,0.2937236474219646,0.31841644752731885,0.24136896991255744,108,254.78393817203778,0.4,1.1766049785159691,126
mweMgSlGM2VxThhwnupYxYzUbR23,0.4353479318295155,0.3428008066548078,0.4473722966086707,0.0,0.0,123.4621848739339,120.0,,,719.1140186916014,-0.3959464972606464,0.2897115661856791,0.30302047066249005,0.31925898831961985,108,202.22379679143364,0.24,0.430018231562849,80
mwsliuPsLFhRFjtjQwYkqcCRDvi2,0.49479611280107033,0.3457599804267282,0.6920068337959375,0.0,0.0,608.9191305036131,120.0,408.4679244329344,1122.0999999046326,713.6320754716982,-1.0913953930184568,0.25743025177647744,0.24828067179073288,0.27081969527207633,108,1684.98081958333,0.31999999999999995,0.7916695819578489,72
nT1qJOiMyDdJ9ui4el195A8Hsgs1,0.3894560696732931,0.22346612788115838,0.29082934658012227,0.0,0.0,11.02711863133868,120.0,,,984.5364486001363,-1.8382098447391397,0.24375526495998756,0.22127040547640978,0.2554533411066041,108,4169.355072468951,0.19999999999999996,1.0106134085771958,79
o4jXmZcjtMVF2ZInToRpVHUhpdV2,0.49494673760696306,0.4009833105672601,0.5861666068402412,0.0,0.0,1396.1067797733567,119.0,,,1170.6952830283146,1.5410426390587437,0.36379742160286815,0.3462169286708762,0.2726222141785801,107,1404.073529460851,0.07999999999999999,0.42742159176541544,74
ohl9pXqpeSMfepC3w9h0tW5SbJw1,0.4602131109432751,0.32937052488216745,0.3659839684037646,0.0,,,120.0,,,1308.4280373831768,0.4460344715869563,0.2912666132251722,0.28758646599763626,0.2918853632668785,108,1180.1587976539722,0.31999999999999995,0.48689678987045276,74
pFlYc8DBmSXkvMIRgXFxvo3JB6j1,0.39667093213025795,0.3475549774486575,0.27734734383787424,0.0,0.0,438.07619047606954,106.0,,,786.6168224298979,-3.0784230678003865,0.2542567298763611,0.2614656462630297,0.26581572491199157,108,1318.692753623162,0.44000000000000006,0.9318461040082227,85
pRQimOpZtsekBI2I1kbnD3pycmo1,0.50853306351487,0.41413044632962076,0.20899565073363932,0.0,0.0,107.73157899421562,118.0,,,798.1009345778795,-3.22955933761372,0.36617722581453765,0.4681544083555562,0.2223357637083385,108,396.1445665315832,0.4,2.6119302440634047,77
pYrcE6tMnVQP1kHAjYwvIz5NOvn1,0.5517392922419572,0.5680199261319855,0.43444074139314265,0.008695652173913044,0.33333333333333387,1.1035714285665108,115.0,-33.645145631021705,970.3500000000349,1003.9951456310566,-1.0930104846965076,0.3640987268656406,0.38078869245996066,0.375776470511311,108,144.4624999999586,0.5200000000000001,0.4399768370999939,89
pcbRW89vVJcviD87V3uxyG4I9st2,0.45685829734488287,0.34349202319806665,0.28110933257482673,0.0,0.0,-58.78017241379507,120.0,658.6556603773475,1297.0999999999767,638.4443396226292,-3.8688173858895,0.2851400938561501,0.3254191484759464,0.2558643448831739,108,1420.5924242424855,0.11999999999999997,0.8196284047069556,71
q0Atnpm0jZS5swcVmq0EMalQUKw1,0.42313343574745643,0.27237929145526646,0.2545716163764417,0.0,0.0,488.0598290598235,120.0,64.47169811322101,809.0000000000146,744.5283018867935,-3.5196735079893826,0.24793957819416151,0.28801137601097626,0.23101387706947055,108,1246.0000000000057,0.27999999999999997,0.4708913402894931,71
qZZiI6GzgxOrpQDGu42ZA0xsGEJ2,0.5357167674421406,0.444212923714556,0.4154229142848996,0.0,0.0,-213.53109241383413,120.0,14.365714274701645,893.6999999880791,879.3342857133774,-1.3254841564969204,0.30234927506368436,0.27873367485686035,0.364035496154635,107,-46.02036210184997,0.4,0.45751683688204964,128
qnR5PLX1v3fPi6SwTJMwGcadwyD3,0.4759089320571697,0.30479078328488673,0.28798858069984684,0.008403361344537815,0.16666666666666652,72.52876106119959,119.0,640.4913461578006,1420.7000000029802,780.2086538451796,-1.74585258157565,0.4131241883225509,0.3390154068982978,0.5273705243267677,107,441.1662046930303,0.36,0.4596524218784123,82
qsRKc69hK6e8Uu6vr2pBO8NbpMt2,0.42586643960727666,0.31652314455351216,0.4313448783632835,0.0,0.0,42.61352718078467,120.0,142.939077669884,834.9749999999767,692.0359223300927,-3.3348857010315185,0.26216397577742184,0.2851989166014519,0.211864627715419,108,2556.317874396216,0.23999999999999994,1.1621308214938186,79
rFV2EUbp64f5ORSh7DqwmCQmeqT2,0.43986644655306456,0.3562783175641312,0.3309627886408745,0.00847457627118644,0.5000000000000013,1380.3413793185148,118.0,549.9301886685053,1500.699999988079,950.7698113195738,-1.7082096212219804,0.3661263411369892,0.33690516108641494,0.34218100330699563,108,2299.015064106299,0.23999999999999994,0.8088260880662206,95
rNe3cRPepZUXbJhmmfQZiGsVzX22,0.46729822806922283,0.3685472409920437,0.4581320868641972,0.0,0.0,968.2262711870974,120.0,,,961.0700934593366,-1.6838182427865416,0.2929972215086395,0.2468020273135628,0.33060420038923116,108,743.4589947119514,0.36,0.584283539684575,112
rUuJv5gl7dWVo7UPQWMx4bohxhK2,0.39046781932704794,0.26158460104121656,0.46158499817536014,0.028037383177570093,0.7499999999999999,-32.357038834952846,107.0,347.0875000000042,1646.5,1299.4124999999958,0.11771065337822949,0.3536622431328564,0.35516057290175235,0.28829871228705056,106,1368.7483105023157,0.36,0.6159891170047519,89
ric6cNjG25XmZJCiKZDOxzeezao1,0.4312161396219546,0.2784343994933994,0.3443864614987471,0.0,0.0,51.681355932257816,120.0,178.61226415099088,923.8000000000466,745.1877358490557,0.18006944700954966,0.21084297510387207,0.23455212871805525,0.20260313843331246,108,156.21908108114746,0.6,0.4797189559112951,100
roaf78tUWxWSEjAUcUu8O7mrQbl1,0.46386455532107723,0.3990462837873173,0.5818410929537206,0.0,,,116.0,,,796.4242990663118,1.0047762742119828,0.26928969363505223,0.32476144933500384,0.2053233582162179,108,2370.1198718025134,0.39999999999999997,1.0854126697808038,78
sqfXvh6GJLaYAqr3RvHrixP8IOx1,0.32894579511323285,0.21239195186330206,0.3038946041580681,0.0,,,117.0,66.0023809217272,954.6499999761583,888.6476190544311,1.6428265682431666,0.33056294707298617,0.2930014283401955,0.3912338286450753,108,2446.886417934788,0.2,0.6708716123321669,78
ssPK6ISW0HerTGke9hznqJ2LpKu1,0.45209125544581286,0.3529984018655528,0.2312185250807417,0.008333333333333333,0.20000000000000018,247.96869567373528,120.0,,,833.2560747984414,-3.869145964535579,0.34039213442534877,0.4072612877879971,0.3120552553844912,108,346.2939799467192,0.43999999999999995,0.47473255405795123,83
tB4wPBbnWJUXeOC3Zxjph0Esgjf1,0.43258944955589645,0.2988661116965371,0.6300862594614942,0.0,0.0,184.66826920555195,108.0,48.3269231342349,1365.7000000476835,1317.3730769134486,-3.2457068888127885,0.3321010820889063,0.31445145955682274,0.30337238740437467,106,1134.5348068656604,0.76,1.1112720588857086,113
tPxs1KmmX0ZKjHS9Nr63xoOPCRr2,0.36842062586250923,0.2665375484560816,0.29781642633543864,0.0,,,120.0,,,883.784112119229,-0.644771875480773,0.24739787275339728,0.2091479195867222,0.24409566018333692,108,646.9591400392594,0.23999999999999994,1.151860600682078,69
tv88wS5Nf6SjruozSmXJxQSmx6J3,0.44812336388559176,0.3362497116785187,0.562134424514244,0.008928571428571428,0.14285714285714285,477.1523809444336,112.0,-391.2014285723368,854.7500000000001,1245.951428572337,0.7277829813663237,0.2899220992653383,0.2449121407678662,0.26141045044443967,108,1267.9045454410764,0.52,0.6406535721551492,81
u64Uf920g5VD9Byq26LT2rs5o4t1,0.42355448937384976,0.26535230811506644,0.24298252200885853,0.0,,,120.0,,,738.8121495352727,-1.4556833765689023,0.24164513283693806,0.25190737232408333,0.2006422641609948,108,833.9669530886886,0.4,0.5832125301776228,107
uM3kxG78g5ZtXtbAEzZyM4XFmaI3,0.383301720042234,0.23227768339357002,0.23616610553115605,0.0,0.0,884.785593226552,120.0,,,955.0757009334096,-1.7857413754166112,0.27943286232964337,0.26368159251899725,0.29855596378625177,108,3196.8083612015485,0.36000000000000004,1.0257842018357568,83
v8nNKiWvPdcjiHXZci39OuFTY6M2,0.40269143083748266,0.3649473618585711,0.2698058933635292,0.0,0.0,510.0469565215319,120.0,,,1172.6831775692021,0.8548607273915155,0.24453259695192986,0.21004663400267853,0.26753569031906543,108,3479.6331265491826,0.4,0.7356379118125392,76
wdppvL4tIkVlGjou6aYzzjlaZXB2,0.5659802265563727,0.5224882703545901,0.3916467175686731,0.025210084033613446,0.2307692307692309,211.83330914364376,119.0,49.59368931975905,835.4499999992549,785.8563106794959,-2.6352010980621547,0.45597518044343505,0.5037510417371642,0.3960051853974712,108,181.26591025006292,0.5,0.7805879282458864,128
wkhxvE50megJGMA1EiROSZIJWNq1,0.41052965602877595,0.271034229322155,0.29808797030485423,0.0,0.0,487.1092436912179,120.0,,,866.2616822428514,0.48121721214180335,0.2983910140515383,0.33295059757135653,0.1463718313286601,108,1470.53818181873,0.36,0.6290446994350153,88
xBGZhFOeypWnqzSQClkrwV9z2vF3,0.5381593327884915,0.46239091682659333,0.36363782682699314,0.0,0.0,185.2615384614419,120.0,,,1036.6242990654166,1.1005658840750254,0.3286847406445836,0.3562155188361388,0.32232337800806116,108,721.7317460317531,0.5199999999999999,0.45635717018393884,78
xFaL2YdAmJcWA8oTLXhVCHNqt0K3,0.5182881618321538,0.3365026292027202,0.4543758012952331,0.0,0.0,507.6287610619638,115.0,660.2390776699469,1425.2750000000233,765.0359223300763,-2.935988140466973,0.43725784685627606,0.439232764288486,0.35411290625051023,108,419.2101161996087,0.43999999999999995,0.5721706663285129,97
xHctBv4C2EU8rHYRouw0btT3GT02,0.3513072220413018,0.2726749306074775,0.4152002492062587,0.0,0.0,-245.19999999998663,120.0,164.7100323623945,899.7333333332402,735.0233009708458,-0.3643613627678376,0.3332911016673831,0.36936715706628015,0.32366814999821863,107,623.9211594202422,0.31999999999999995,0.5160352243946682,90
xyAILKfYP2M8GqAai11x6NT7IcP2,0.45979722358042346,0.2868029003991058,0.25999001284912926,0.0,0.0,1485.1521008404818,120.0,,,981.060747663534,3.731280729145657,0.33660180218244423,0.3824785231617965,0.24777863644193684,108,1518.5357060849433,0.36,0.7711511864939382,81
y1EHXv8tUTa4BRS4fRio7bULYfA2,0.47719282689404513,0.39910138348070223,0.4655304849892392,0.0,0.0,624.7828985421556,118.0,,,854.4682242892613,-2.460132959312596,0.26345779353265975,0.2890481336869581,0.25097130707953946,108,664.8521929487849,0.43999999999999995,1.0855143873075237,101
yGTid3RXTdQe5JNosdSxvgktWIW2,0.5099871096042918,0.41689033905843464,0.6219143008550141,0.0,,,115.0,645.9548979194797,2133.6599999666214,1487.7051020471417,-5.195568358471018,0.3301215816002299,0.3554790456658803,0.3175528499789595,104,1353.564828617029,0.31999999999999995,0.4837513336616749,73
yatBVTBMCSMp0wJluOCLzTFKMyP2,0.4323092187128777,0.2620308276163053,0.6123484496065772,0.0,0.0,307.79000000100586,104.0,,,956.9252336446509,0.21659723864841687,0.23275447689557324,0.2098730270994001,0.23615646193092243,108,1483.9999999999861,0.6,0.7061050550551273,91
yfjd8LbAMrYeG54927d3GiKAyXI2,0.5123799492486715,0.3399958290453379,0.43120009440034446,0.00847457627118644,0.16666666666666674,525.6663690476115,118.0,882.2622641509661,1745.9000000000233,863.6377358490572,0.20329373322387462,0.43433660842993826,0.41438106911917444,0.4397006689830694,108,1382.5277777777974,0.4,0.5236136269698907,78
zw1w9FipI9RjJsuhHse6UZavBxs2,,,,,,,,675.7952380951899,1406.4999999999418,730.7047619047519,-0.5397634315584464,0.32157841474136867,0.34247066424118244,0.32372938133694856,108,389.37084398974343,0.4,0.7552986291860796,110
zxG9mUnF7uRkaOKSoCPsiRZzr372,0.32477352373584567,0.2671994070467326,0.353419404573158,0.0,0.0,311.15384619969564,118.0,417.4943395785567,1485.2999999523165,1067.8056603737598,-0.8843768684583866,0.24808578500093212,0.2711720560869935,0.15499164101842886,108,1804.1189033293622,0.36,0.6722525455083723,96
