t2_stim,t1_resp,t1_stim,t1_correct,t2_correctResp,idx,t2_resp,t2_correct,t1_correctResp,t1_rt,t2_resp_ms,participant_id,t1_rt_ms,t1_resp_ms,t2_onset_ms,task,block_index,t2_pressed_while_t1_pending,soa,t1_timeout,t2_timeout,soa_measured_ms,response_order,t1_onset_ms,trial_index,t2_rt,soa_bin
red,E,4,True,R,0,R,True,E,,1459919.799999982,GE4hogtdLdTFbNasENgtm6SO3hC3,1781.0,1459412.0,1457702.299999982,prp,,False,50.0,False,False,71.2999999821186,T1→T2,1457631.0,0.0,2217.5,short
red,O,9,True,R,1,R,True,O,,1462245.5,GE4hogtdLdTFbNasENgtm6SO3hC3,1052.5999999940395,1462002.299999982,1461014.5,prp,,False,50.0,False,False,64.80000001192093,T1→T2,1460949.699999988,1.0,1231.0,short
blue,O,1,True,B,2,B,True,O,,1465244.0,GE4hogtdLdTFbNasENgtm6SO3hC3,1634.9000000059605,1464913.0,1463451.8999999762,prp,,False,150.0,False,False,173.7999999821186,T1→T2,1463278.099999994,2.0,1792.100000023842,short
red,E,6,True,R,3,R,True,E,,1467540.099999994,GE4hogtdLdTFbNasENgtm6SO3hC3,818.0,1467086.299999982,1466891.5,prp,,False,600.0,False,False,623.2000000178814,T1→T2,1466268.299999982,3.0,648.5999999940395,other
blue,O,7,True,B,4,B,True,O,,1469779.099999994,GE4hogtdLdTFbNasENgtm6SO3hC3,851.0999999940395,1469426.799999982,1468896.699999988,prp,,False,300.0,False,False,321.0,T1→T2,1468575.699999988,4.0,882.4000000059605,other
red,O,9,True,R,5,R,True,O,,1471942.299999982,GE4hogtdLdTFbNasENgtm6SO3hC3,898.3000000119209,1471703.099999994,1471132.5,prp,,False,300.0,False,False,327.7000000178814,T1→T2,1470804.799999982,5.0,809.7999999821186,other
blue,E,4,True,B,6,B,True,E,,1474142.799999982,GE4hogtdLdTFbNasENgtm6SO3hC3,794.6999999880791,1473768.8999999762,1473585.199999988,prp,,False,600.0,False,False,611.0,T1→T2,1472974.199999988,6.0,557.5999999940395,other
red,E,4,True,R,7,R,True,E,,1476380.099999994,GE4hogtdLdTFbNasENgtm6SO3hC3,942.2999999821186,1476122.3999999762,1475497.0,prp,,False,300.0,False,False,316.90000000596046,T1→T2,1475180.099999994,7.0,883.0999999940395,other
blue,E,2,True,B,8,B,True,E,,1478773.699999988,GE4hogtdLdTFbNasENgtm6SO3hC3,840.9000000059605,1478245.799999982,1478022.699999988,prp,,False,600.0,False,False,617.8000000119209,T1→T2,1477404.8999999762,8.0,751.0,other
blue,O,3,True,B,9,B,True,O,,1481814.299999982,GE4hogtdLdTFbNasENgtm6SO3hC3,1728.0999999940395,1481530.599999994,1481015.5,prp,,False,1200.0,False,False,1213.0,T1→T2,1479802.5,9.0,798.7999999821186,long
blue,O,1,True,B,10,B,True,O,,1483886.299999982,GE4hogtdLdTFbNasENgtm6SO3hC3,761.5999999940395,1483607.799999982,1482917.0,prp,,False,50.0,False,False,70.80000001192093,T1→T2,1482846.199999988,10.0,969.2999999821186,short
blue,O,9,True,B,11,B,True,O,,1485834.199999988,GE4hogtdLdTFbNasENgtm6SO3hC3,659.4000000059605,1485571.799999982,1484984.099999994,prp,,False,50.0,False,False,71.7000000178814,T1→T2,1484912.3999999762,11.0,850.0999999940395,short
blue,O,3,True,B,12,B,True,O,,1487799.8999999762,GE4hogtdLdTFbNasENgtm6SO3hC3,690.2999999821186,1487550.3999999762,1487035.3999999762,prp,,False,150.0,False,False,175.2999999821186,T1→T2,1486860.099999994,12.0,764.5,short
blue,E,4,True,B,13,B,True,E,,1489714.8999999762,GE4hogtdLdTFbNasENgtm6SO3hC3,663.5,1489485.3999999762,1488899.599999994,prp,,False,50.0,False,False,77.7000000178814,T1→T2,1488821.8999999762,13.0,815.2999999821186,short
red,O,5,True,R,14,R,True,O,,1492858.5,GE4hogtdLdTFbNasENgtm6SO3hC3,1058.0,1491795.299999982,1491967.0,prp,,False,1200.0,False,False,1229.7000000178814,T1→T2,1490737.299999982,14.0,891.5,long
red,E,8,True,R,15,R,True,E,,1495357.299999982,GE4hogtdLdTFbNasENgtm6SO3hC3,1141.0,1495036.199999988,1494068.799999982,prp,,False,150.0,False,False,173.59999999403954,T1→T2,1493895.199999988,15.0,1288.5,short
blue,E,8,True,B,16,B,True,E,,1497470.699999988,GE4hogtdLdTFbNasENgtm6SO3hC3,859.6999999880791,1497230.299999982,1496680.599999994,prp,,False,300.0,False,False,310.0,T1→T2,1496370.599999994,16.0,790.0999999940395,other
blue,O,7,True,B,17,B,True,O,,1500537.299999982,GE4hogtdLdTFbNasENgtm6SO3hC3,1683.0,1500189.299999982,1499722.299999982,prp,,False,1200.0,False,False,1216.0,T1→T2,1498506.299999982,17.0,815.0,long
blue,E,8,True,B,18,B,True,E,,1502856.099999994,GE4hogtdLdTFbNasENgtm6SO3hC3,949.4000000059604,1502509.699999988,1502168.0,prp,,False,600.0,False,False,607.7000000178814,T1→T2,1501560.299999982,18.0,688.0999999940395,other
red,O,5,True,R,19,R,True,O,,1505222.099999994,GE4hogtdLdTFbNasENgtm6SO3hC3,999.1999999880792,1504881.8999999762,1504501.8999999762,prp,,False,600.0,False,False,619.1999999880791,T1→T2,1503882.699999988,19.0,720.2000000178814,other
red,E,4,True,R,20,R,True,E,,1507230.599999994,GE4hogtdLdTFbNasENgtm6SO3hC3,716.7000000178814,1506966.099999994,1506315.199999988,prp,,False,50.0,False,False,65.80000001192093,T1→T2,1506249.3999999762,20.0,915.4000000059604,short
red,E,6,True,R,21,R,True,E,,1509496.5,GE4hogtdLdTFbNasENgtm6SO3hC3,917.100000023842,1509165.5,1508866.3999999762,prp,,False,600.0,False,False,618.0,T1→T2,1508248.3999999762,21.0,630.1000000238419,other
red,E,2,True,R,22,R,True,E,,1511354.799999982,GE4hogtdLdTFbNasENgtm6SO3hC3,641.4000000059605,1511173.299999982,1510716.799999982,prp,,False,150.0,False,False,184.9000000059605,T1→T2,1510531.8999999762,22.0,638.0,short
blue,O,7,True,B,23,B,True,O,,1513603.299999982,GE4hogtdLdTFbNasENgtm6SO3hC3,1019.5,1513390.8999999762,1512982.699999988,prp,,False,600.0,False,False,611.3000000119209,T1→T2,1512371.3999999762,23.0,620.5999999940395,other
blue,O,9,True,B,24,B,True,O,,1515556.5,GE4hogtdLdTFbNasENgtm6SO3hC3,685.9000000059605,1515315.699999988,1514702.8999999762,prp,,False,50.0,False,False,73.09999999403954,T1→T2,1514629.799999982,24.0,853.6000000238419,short
blue,E,4,True,B,25,B,True,E,,1517470.0,GE4hogtdLdTFbNasENgtm6SO3hC3,764.3999999761581,1517358.8999999762,1516768.8999999762,prp,,False,150.0,False,False,174.39999997615814,T1→T2,1516594.5,25.0,701.1000000238419,short
red,E,4,True,R,26,R,True,E,,1519468.3999999762,GE4hogtdLdTFbNasENgtm6SO3hC3,895.6999999880791,1519387.699999988,1518570.299999982,prp,,False,50.0,False,False,78.2999999821186,T1→T2,1518492.0,26.0,898.0999999940395,short
red,O,1,True,R,27,R,True,O,,1522236.699999988,GE4hogtdLdTFbNasENgtm6SO3hC3,1620.2999999821186,1522120.8999999762,1521708.8999999762,prp,,False,1200.0,False,False,1208.2999999821186,T1→T2,1520500.599999994,27.0,527.8000000119209,long
blue,O,3,True,B,28,B,True,O,,1524285.3999999762,GE4hogtdLdTFbNasENgtm6SO3hC3,919.9000000059604,1524186.099999994,1523576.3999999762,prp,,False,300.0,False,False,310.19999998807907,T1→T2,1523266.199999988,28.0,709.0,other
blue,E,6,True,B,29,B,True,E,,1527152.799999982,GE4hogtdLdTFbNasENgtm6SO3hC3,1727.199999988079,1527048.199999988,1526537.699999988,prp,,False,1200.0,False,False,1216.699999988079,T1→T2,1525321.0,29.0,615.0999999940395,long
blue,O,1,True,B,30,B,True,O,,1540036.3999999762,GE4hogtdLdTFbNasENgtm6SO3hC3,1649.300000011921,1539836.199999988,1539397.599999994,prp,,False,1200.0,False,False,1210.7000000178814,T1→T2,1538186.8999999762,30.0,638.7999999821186,long
red,O,1,True,R,31,R,True,O,,1542405.3999999762,GE4hogtdLdTFbNasENgtm6SO3hC3,1087.4000000059605,1542156.0,1541249.699999988,prp,,False,150.0,False,False,181.09999999403956,T1→T2,1541068.599999994,31.0,1155.699999988079,short
red,E,2,True,R,32,R,True,E,,1544617.799999982,GE4hogtdLdTFbNasENgtm6SO3hC3,1028.0999999940395,1544468.199999988,1543747.0,prp,,False,300.0,False,False,306.90000000596046,T1→T2,1543440.099999994,32.0,870.7999999821186,other
blue,O,1,True,B,33,B,True,O,,1546809.0,GE4hogtdLdTFbNasENgtm6SO3hC3,1020.6999999880792,1546672.199999988,1545720.199999988,prp,,False,50.0,False,False,68.69999998807907,T1→T2,1545651.5,33.0,1088.800000011921,short
red,E,2,True,R,34,R,True,E,,1548890.599999994,GE4hogtdLdTFbNasENgtm6SO3hC3,924.7000000178814,1548768.599999994,1547920.099999994,prp,,False,50.0,False,False,76.2000000178814,T1→T2,1547843.8999999762,34.0,970.5,short
blue,O,1,True,B,35,B,True,O,,1551411.299999982,GE4hogtdLdTFbNasENgtm6SO3hC3,618.8000000119209,1550535.199999988,1550529.599999994,prp,,False,600.0,False,False,613.2000000178814,T1→T2,1549916.3999999762,35.0,881.6999999880791,other
blue,E,4,True,B,36,B,True,E,,1553600.8999999762,GE4hogtdLdTFbNasENgtm6SO3hC3,611.0999999940395,1553056.699999988,1553078.299999982,prp,,False,600.0,False,False,632.6999999880791,T1→T2,1552445.599999994,36.0,522.5999999940395,other
red,O,5,True,R,37,R,True,O,,1555537.199999988,GE4hogtdLdTFbNasENgtm6SO3hC3,779.5,1555405.5,1554803.3999999762,prp,,False,150.0,False,False,177.39999997615814,T1→T2,1554626.0,37.0,733.8000000119209,short
red,E,8,True,R,38,R,True,E,,1558209.799999982,GE4hogtdLdTFbNasENgtm6SO3hC3,742.2999999821186,1557312.799999982,1557783.699999988,prp,,False,1200.0,False,False,1213.199999988079,T1→T2,1556570.5,38.0,426.09999999403954,long
blue,E,2,True,B,39,B,True,E,,1560437.799999982,GE4hogtdLdTFbNasENgtm6SO3hC3,981.1999999880792,1560219.799999982,1559415.299999982,prp,,False,150.0,False,False,176.69999998807907,T1→T2,1559238.599999994,39.0,1022.5,short
red,E,2,True,R,40,R,True,E,,1562551.8999999762,GE4hogtdLdTFbNasENgtm6SO3hC3,980.9000000059604,1562443.199999988,1561638.0,prp,,False,150.0,False,False,175.7000000178814,T1→T2,1561462.299999982,40.0,913.899999976158,short
red,O,9,True,R,41,R,True,O,,1564840.8999999762,GE4hogtdLdTFbNasENgtm6SO3hC3,1127.7999999821186,1564698.3999999762,1563883.299999982,prp,,False,300.0,False,False,312.69999998807907,T1→T2,1563570.599999994,41.0,957.5999999940396,other
blue,O,1,True,B,42,B,True,O,,1567151.299999982,GE4hogtdLdTFbNasENgtm6SO3hC3,1114.800000011921,1566981.599999994,1566481.299999982,prp,,False,600.0,False,False,614.5,T1→T2,1565866.799999982,42.0,670.0,other
red,E,6,True,R,43,R,True,E,,1569955.0,GE4hogtdLdTFbNasENgtm6SO3hC3,1662.0999999940395,1569840.299999982,1568353.099999994,prp,,False,150.0,False,False,174.90000000596046,T1→T2,1568178.199999988,43.0,1601.9000000059605,short
blue,E,6,True,B,44,B,True,E,,1571890.5,GE4hogtdLdTFbNasENgtm6SO3hC3,779.5,1571744.8999999762,1571137.199999988,prp,,False,150.0,False,False,171.80000001192093,T1→T2,1570965.3999999762,44.0,753.3000000119209,short
blue,E,4,True,B,45,B,True,E,,1573906.599999994,GE4hogtdLdTFbNasENgtm6SO3hC3,844.5999999940395,1573757.3999999762,1573086.5,prp,,False,150.0,False,False,173.7000000178814,T1→T2,1572912.799999982,45.0,820.0999999940395,short
red,O,1,True,R,46,R,True,O,,1575906.799999982,GE4hogtdLdTFbNasENgtm6SO3hC3,812.1000000238419,1575752.5,1575022.299999982,prp,,False,50.0,False,False,81.90000000596046,T1→T2,1574940.3999999762,46.0,884.5,short
red,E,4,True,R,47,R,True,E,,1578103.0,GE4hogtdLdTFbNasENgtm6SO3hC3,992.2000000178814,1577932.5,1577118.199999988,prp,,False,150.0,False,False,177.90000000596046,T1→T2,1576940.299999982,47.0,984.8000000119208,short
blue,E,2,True,B,48,B,True,E,,1581175.099999994,GE4hogtdLdTFbNasENgtm6SO3hC3,1784.0,1580914.599999994,1579447.3999999762,prp,,False,300.0,False,False,316.7999999821186,T1→T2,1579130.599999994,48.0,1727.7000000178814,other
blue,E,8,True,B,49,B,True,E,,1584035.599999994,GE4hogtdLdTFbNasENgtm6SO3hC3,1610.5,1583809.199999988,1583415.0,prp,,False,1200.0,False,False,1216.300000011921,T1→T2,1582198.699999988,49.0,620.5999999940395,long
blue,O,7,True,B,50,B,True,O,,1586424.799999982,GE4hogtdLdTFbNasENgtm6SO3hC3,1142.0,1586206.299999982,1585386.599999994,prp,,False,300.0,False,False,322.30000001192093,T1→T2,1585064.299999982,50.0,1038.199999988079,other
blue,E,6,True,B,51,B,True,E,,1589228.099999994,GE4hogtdLdTFbNasENgtm6SO3hC3,1096.5999999940395,1588549.299999982,1588667.3999999762,prp,,False,1200.0,False,False,1214.699999988079,T1→T2,1587452.699999988,51.0,560.7000000178814,long
blue,O,9,True,B,52,B,True,O,,1591519.599999994,GE4hogtdLdTFbNasENgtm6SO3hC3,1052.9000000059605,1591312.699999988,1590880.3999999762,prp,,False,600.0,False,False,620.5999999940395,T1→T2,1590259.799999982,52.0,639.2000000178814,other
blue,O,9,True,B,53,B,True,O,,1593504.699999988,GE4hogtdLdTFbNasENgtm6SO3hC3,774.0999999940395,1593321.299999982,1592854.3999999762,prp,,False,300.0,False,False,307.19999998807907,T1→T2,1592547.199999988,53.0,650.3000000119209,other
blue,O,5,True,B,54,B,True,O,,1595709.299999982,GE4hogtdLdTFbNasENgtm6SO3hC3,984.3000000119208,1595523.199999988,1595156.8999999762,prp,,False,600.0,False,False,618.0,T1→T2,1594538.8999999762,54.0,552.4000000059605,other
blue,E,6,True,B,55,B,True,E,,1597841.599999994,GE4hogtdLdTFbNasENgtm6SO3hC3,943.0999999940396,1597689.299999982,1597065.8999999762,prp,,False,300.0,False,False,319.69999998807907,T1→T2,1596746.199999988,55.0,775.7000000178814,other
red,O,7,True,R,56,R,True,O,,1600775.699999988,GE4hogtdLdTFbNasENgtm6SO3hC3,1693.9000000059605,1600562.199999988,1600079.599999994,prp,,False,1200.0,False,False,1211.300000011921,T1→T2,1598868.299999982,56.0,696.0999999940395,long
red,O,5,True,R,57,R,True,O,,1603491.5,GE4hogtdLdTFbNasENgtm6SO3hC3,1551.699999988079,1603354.799999982,1602411.099999994,prp,,False,600.0,False,False,608.0,T1→T2,1601803.099999994,57.0,1080.4000000059605,other
red,E,8,True,R,58,R,True,E,,1605800.599999994,GE4hogtdLdTFbNasENgtm6SO3hC3,1079.5999999940395,1605596.099999994,1605135.0,prp,,False,600.0,False,False,618.5,T1→T2,1604516.5,58.0,665.5999999940395,other
blue,E,4,True,B,59,B,True,E,,1608591.299999982,GE4hogtdLdTFbNasENgtm6SO3hC3,1606.9000000059605,1608443.599999994,1608050.699999988,prp,,False,1200.0,False,False,1214.0,T1→T2,1606836.699999988,59.0,540.5999999940395,long
red,E,6,True,R,60,R,True,E,,1620772.599999994,GE4hogtdLdTFbNasENgtm6SO3hC3,1054.800000011921,1620670.699999988,1619689.599999994,prp,,False,50.0,False,False,73.7000000178814,T1→T2,1619615.8999999762,60.0,1083.0,short
blue,E,8,True,B,61,B,True,E,,1623082.699999988,GE4hogtdLdTFbNasENgtm6SO3hC3,1162.7000000178814,1622960.099999994,1622413.699999988,prp,,False,600.0,False,False,616.3000000119209,T1→T2,1621797.3999999762,61.0,669.0,other
red,O,5,True,R,62,R,True,O,,1625057.8999999762,GE4hogtdLdTFbNasENgtm6SO3hC3,805.0999999940395,1624911.299999982,1624429.8999999762,prp,,False,300.0,False,False,323.69999998807907,T1→T2,1624106.199999988,62.0,628.0,other
red,E,6,True,R,63,R,True,E,,1627241.3999999762,GE4hogtdLdTFbNasENgtm6SO3hC3,1018.899999976158,1627115.3999999762,1626421.099999994,prp,,False,300.0,False,False,324.59999999403954,T1→T2,1626096.5,63.0,820.2999999821186,other
blue,E,4,True,B,64,B,True,E,,1629368.3999999762,GE4hogtdLdTFbNasENgtm6SO3hC3,971.9000000059604,1629244.099999994,1628894.5,prp,,False,600.0,False,False,622.3000000119209,T1→T2,1628272.199999988,64.0,473.8999999761581,other
blue,E,4,True,B,65,B,True,E,,1631106.099999994,GE4hogtdLdTFbNasENgtm6SO3hC3,583.0,1630972.599999994,1630468.699999988,prp,,False,50.0,False,False,79.09999999403954,T1→T2,1630389.599999994,65.0,637.4000000059605,short
blue,O,9,True,B,66,B,True,O,,1633988.799999982,GE4hogtdLdTFbNasENgtm6SO3hC3,1689.5,1633822.099999994,1633365.699999988,prp,,False,1200.0,False,False,1233.0999999940395,T1→T2,1632132.599999994,66.0,623.0999999940395,long
red,E,6,True,R,67,R,True,E,,1637088.199999988,GE4hogtdLdTFbNasENgtm6SO3hC3,1936.7999999821184,1636952.299999982,1636232.699999988,prp,,False,1200.0,False,False,1217.199999988079,T1→T2,1635015.5,67.0,855.5,long
red,E,6,True,R,68,R,True,E,,1639224.699999988,GE4hogtdLdTFbNasENgtm6SO3hC3,959.6999999880792,1639080.3999999762,1638742.299999982,prp,,False,600.0,False,False,621.5999999940395,T1→T2,1638120.699999988,68.0,482.40000000596046,other
red,O,3,True,R,70,R,True,O,,1644191.8999999762,GE4hogtdLdTFbNasENgtm6SO3hC3,1780.800000011921,1644049.199999988,1642434.3999999762,prp,,False,150.0,False,False,166.0,T1→T2,1642268.3999999762,70.0,1757.5,short
blue,O,1,True,B,71,B,True,O,,1647221.199999988,GE4hogtdLdTFbNasENgtm6SO3hC3,1657.399999976158,1646872.8999999762,1646432.0,prp,,False,1200.0,False,False,1216.5,T1→T2,1645215.5,71.0,789.1999999880791,long
red,O,3,True,R,72,R,True,O,,1649711.799999982,GE4hogtdLdTFbNasENgtm6SO3hC3,1320.0,1649572.5,1648859.199999988,prp,,False,600.0,False,False,606.6999999880791,T1→T2,1648252.5,72.0,852.5999999940395,other
red,O,9,True,R,73,R,True,O,,1651704.5,GE4hogtdLdTFbNasENgtm6SO3hC3,798.4000000059605,1651544.199999988,1651068.199999988,prp,,False,300.0,False,False,322.40000000596046,T1→T2,1650745.799999982,73.0,636.3000000119209,other
red,O,3,True,R,74,R,True,O,,1653662.699999988,GE4hogtdLdTFbNasENgtm6SO3hC3,771.5,1653495.699999988,1653035.599999994,prp,,False,300.0,False,False,311.40000000596046,T1→T2,1652724.199999988,74.0,627.0999999940395,other
red,E,2,True,R,75,R,True,E,,1655925.099999994,GE4hogtdLdTFbNasENgtm6SO3hC3,1084.2999999821186,1655763.8999999762,1655302.099999994,prp,,False,600.0,False,False,622.5,T1→T2,1654679.599999994,75.0,623.0,other
red,O,7,True,R,76,R,True,O,,1658071.799999982,GE4hogtdLdTFbNasENgtm6SO3hC3,960.6999999880792,1657908.299999982,1657020.299999982,prp,,False,50.0,False,False,72.69999998807907,T1→T2,1656947.599999994,76.0,1051.5,short
blue,E,6,True,B,77,B,True,E,,1660955.699999988,GE4hogtdLdTFbNasENgtm6SO3hC3,1594.5,1660690.699999988,1659416.199999988,prp,,False,300.0,False,False,320.0,T1→T2,1659096.199999988,77.0,1539.5,other
red,O,7,True,R,78,R,True,O,,1662855.799999982,GE4hogtdLdTFbNasENgtm6SO3hC3,759.7000000178814,1662738.599999994,1662152.099999994,prp,,False,150.0,False,False,173.2000000178814,T1→T2,1661978.8999999762,78.0,703.6999999880791,short
red,O,7,True,R,79,R,True,O,,1665021.799999982,GE4hogtdLdTFbNasENgtm6SO3hC3,1003.7999999821186,1664897.8999999762,1664069.0,prp,,False,150.0,False,False,174.90000000596046,T1→T2,1663894.099999994,79.0,952.7999999821186,short
red,O,7,True,R,80,R,True,O,,1667818.3999999762,GE4hogtdLdTFbNasENgtm6SO3hC3,1644.5,1667694.5,1667258.8999999762,prp,,False,1200.0,False,False,1208.899999976158,T1→T2,1666050.0,80.0,559.5,long
red,O,1,True,R,81,R,True,O,,1669721.599999994,GE4hogtdLdTFbNasENgtm6SO3hC3,741.9000000059605,1669589.299999982,1668919.599999994,prp,,False,50.0,False,False,72.2000000178814,T1→T2,1668847.3999999762,81.0,802.0,short
blue,E,2,True,B,82,B,True,E,,1672356.099999994,GE4hogtdLdTFbNasENgtm6SO3hC3,1490.699999988079,1672243.3999999762,1670816.8999999762,prp,,False,50.0,False,False,64.19999998807907,T1→T2,1670752.699999988,82.0,1539.2000000178814,short
red,O,3,True,R,83,R,True,O,,1674744.199999988,GE4hogtdLdTFbNasENgtm6SO3hC3,1242.0,1674625.5,1673456.199999988,prp,,False,50.0,False,False,72.69999998807907,T1→T2,1673383.5,83.0,1288.0,short
red,E,4,True,R,84,R,True,E,,1677502.5,GE4hogtdLdTFbNasENgtm6SO3hC3,1601.5,1677361.8999999762,1676974.699999988,prp,,False,1200.0,False,False,1214.300000011921,T1→T2,1675760.3999999762,84.0,527.8000000119209,long
red,E,2,True,R,85,R,True,E,,1680305.099999994,GE4hogtdLdTFbNasENgtm6SO3hC3,1607.5999999940395,1680142.799999982,1679746.0,prp,,False,1200.0,False,False,1210.800000011921,T1→T2,1678535.199999988,85.0,559.0999999940395,long
blue,O,7,True,B,87,B,True,O,,1685608.199999988,GE4hogtdLdTFbNasENgtm6SO3hC3,1829.5999999940395,1685468.8999999762,1683704.599999994,prp,,False,50.0,False,False,65.30000001192093,T1→T2,1683639.299999982,87.0,1903.5999999940395,short
blue,O,1,True,B,88,B,True,O,,1688459.3999999762,GE4hogtdLdTFbNasENgtm6SO3hC3,1667.2999999821186,1688312.3999999762,1687859.199999988,prp,,False,1200.0,False,False,1214.0999999940395,T1→T2,1686645.099999994,88.0,600.1999999880791,long
blue,E,2,True,B,89,B,True,E,,1692176.5,GE4hogtdLdTFbNasENgtm6SO3hC3,2555.7999999821186,1692042.8999999762,1689552.599999994,prp,,False,50.0,False,False,65.5,T1→T2,1689487.099999994,89.0,2623.9000000059605,short
blue,E,8,True,B,90,B,True,E,,1704325.3999999762,GE4hogtdLdTFbNasENgtm6SO3hC3,1015.9000000059604,1704228.599999994,1703406.3999999762,prp,,False,150.0,False,False,193.69999998807907,T1→T2,1703212.699999988,90.0,919.0,short
blue,E,2,True,B,91,B,True,E,,1707091.699999988,GE4hogtdLdTFbNasENgtm6SO3hC3,1591.5,1706957.799999982,1706580.0,prp,,False,1200.0,False,False,1213.7000000178814,T1→T2,1705366.299999982,91.0,511.6999999880791,long
blue,E,2,True,B,92,B,True,E,,1708919.599999994,GE4hogtdLdTFbNasENgtm6SO3hC3,693.7000000178814,1708817.5,1708200.3999999762,prp,,False,50.0,False,False,76.59999999403954,T1→T2,1708123.799999982,92.0,719.2000000178814,short
blue,O,7,True,B,93,B,True,O,,1711073.599999994,GE4hogtdLdTFbNasENgtm6SO3hC3,1008.5999999940396,1710951.199999988,1710565.299999982,prp,,False,600.0,False,False,622.6999999880791,T1→T2,1709942.599999994,93.0,508.3000000119209,other
blue,E,8,True,B,94,B,True,E,,1713037.3999999762,GE4hogtdLdTFbNasENgtm6SO3hC3,812.3000000119209,1712923.5,1712433.799999982,prp,,False,300.0,False,False,322.59999999403954,T1→T2,1712111.199999988,94.0,603.5999999940395,other
blue,O,5,True,B,95,B,True,O,,1715376.299999982,GE4hogtdLdTFbNasENgtm6SO3hC3,1178.7999999821186,1715253.3999999762,1714383.8999999762,prp,,False,300.0,False,False,309.2999999821186,T1→T2,1714074.599999994,95.0,992.4000000059604,other
red,E,6,True,R,96,R,True,E,,1717610.5,GE4hogtdLdTFbNasENgtm6SO3hC3,1078.5999999940395,1717487.099999994,1717029.099999994,prp,,False,600.0,False,False,620.5999999940395,T1→T2,1716408.5,96.0,581.4000000059605,other
red,E,4,True,R,97,R,True,E,,1719641.5,GE4hogtdLdTFbNasENgtm6SO3hC3,861.6999999880791,1719507.299999982,1718965.699999988,prp,,False,300.0,False,False,320.09999999403954,T1→T2,1718645.599999994,97.0,675.8000000119209,other
red,E,8,True,R,98,R,True,E,,1722390.0,GE4hogtdLdTFbNasENgtm6SO3hC3,1625.199999988079,1722291.3999999762,1721887.199999988,prp,,False,1200.0,False,False,1221.0,T1→T2,1720666.199999988,98.0,502.8000000119209,long
blue,E,6,True,B,99,B,True,E,,1724406.8999999762,GE4hogtdLdTFbNasENgtm6SO3hC3,859.2999999821186,1724272.3999999762,1723489.199999988,prp,,False,50.0,False,False,76.09999999403954,T1→T2,1723413.099999994,99.0,917.6999999880792,short
blue,O,9,True,B,100,B,True,O,,1726685.099999994,GE4hogtdLdTFbNasENgtm6SO3hC3,912.0,1726349.099999994,1725618.8999999762,prp,,False,150.0,False,False,181.7999999821186,T1→T2,1725437.099999994,100.0,1066.2000000178814,short
red,O,9,True,R,101,R,True,O,,1728902.099999994,GE4hogtdLdTFbNasENgtm6SO3hC3,1075.9000000059605,1728785.199999988,1727885.599999994,prp,,False,150.0,False,False,176.30000001192093,T1→T2,1727709.299999982,101.0,1016.5,short
red,O,1,True,R,102,R,True,O,,1731179.599999994,GE4hogtdLdTFbNasENgtm6SO3hC3,1100.600000023842,1731035.5,1730557.099999994,prp,,False,600.0,False,False,622.2000000178814,T1→T2,1729934.8999999762,102.0,622.5,other
red,E,6,True,R,103,R,True,E,,1733255.699999988,GE4hogtdLdTFbNasENgtm6SO3hC3,918.2000000178814,1733128.0,1732532.3999999762,prp,,False,300.0,False,False,322.59999999403954,T1→T2,1732209.799999982,103.0,723.3000000119209,other
red,E,4,True,R,104,R,True,E,,1735453.699999988,GE4hogtdLdTFbNasENgtm6SO3hC3,1066.2999999821186,1735331.8999999762,1734341.799999982,prp,,False,50.0,False,False,76.19999998807907,T1→T2,1734265.599999994,104.0,1111.9000000059605,short
red,E,8,True,R,105,R,True,E,,1737376.0,GE4hogtdLdTFbNasENgtm6SO3hC3,750.9000000059605,1737237.199999988,1736803.299999982,prp,,False,300.0,False,False,317.0,T1→T2,1736486.299999982,105.0,572.7000000178814,other
red,O,7,True,R,106,R,True,O,,1740353.599999994,GE4hogtdLdTFbNasENgtm6SO3hC3,1795.9000000059605,1740196.799999982,1739619.799999982,prp,,False,1200.0,False,False,1218.9000000059605,T1→T2,1738400.8999999762,106.0,733.8000000119209,long
red,O,3,True,R,107,R,True,O,,1742491.0,GE4hogtdLdTFbNasENgtm6SO3hC3,961.7999999821186,1742339.3999999762,1741455.8999999762,prp,,False,50.0,False,False,78.2999999821186,T1→T2,1741377.599999994,107.0,1035.100000023842,short
blue,E,8,True,B,108,B,True,E,,1745392.0,GE4hogtdLdTFbNasENgtm6SO3hC3,1742.0,1745255.5,1743687.599999994,prp,,False,150.0,False,False,174.09999999403954,T1→T2,1743513.5,108.0,1704.4000000059605,short
blue,E,2,True,B,109,B,True,E,,1747370.799999982,GE4hogtdLdTFbNasENgtm6SO3hC3,804.0999999940395,1747230.599999994,1746749.5,prp,,False,300.0,False,False,323.0,T1→T2,1746426.5,109.0,621.2999999821186,other
red,E,2,True,R,110,R,True,E,,1749236.599999994,GE4hogtdLdTFbNasENgtm6SO3hC3,753.5999999940395,1749145.099999994,1748568.299999982,prp,,False,150.0,False,False,176.7999999821186,T1→T2,1748391.5,110.0,668.3000000119209,short
red,O,9,True,R,111,R,True,O,,1751609.699999988,GE4hogtdLdTFbNasENgtm6SO3hC3,1242.2999999821186,1751501.299999982,1750880.599999994,prp,,False,600.0,False,False,621.5999999940395,T1→T2,1750259.0,111.0,729.0999999940395,other
red,O,9,True,R,112,R,True,O,,1753754.599999994,GE4hogtdLdTFbNasENgtm6SO3hC3,998.1999999880792,1753643.8999999762,1753253.0,prp,,False,600.0,False,False,607.3000000119209,T1→T2,1752645.699999988,112.0,501.59999999403954,other
blue,O,5,True,B,113,B,True,O,,1756439.8999999762,GE4hogtdLdTFbNasENgtm6SO3hC3,1534.5999999940395,1756337.099999994,1755110.0,prp,,False,300.0,False,False,307.5,T1→T2,1754802.5,113.0,1329.899999976158,other
red,E,4,True,R,114,R,True,E,,1759171.0,GE4hogtdLdTFbNasENgtm6SO3hC3,1602.100000023842,1759060.5,1758673.799999982,prp,,False,1200.0,False,False,1215.4000000059605,T1→T2,1757458.3999999762,114.0,497.2000000178814,long
blue,O,1,True,B,115,B,True,O,,1761505.0,GE4hogtdLdTFbNasENgtm6SO3hC3,1193.5999999940395,1761388.299999982,1760370.3999999762,prp,,False,150.0,False,False,175.69999998807907,T1→T2,1760194.699999988,115.0,1134.600000023842,short
red,O,5,True,R,117,R,True,O,,1766677.3999999762,GE4hogtdLdTFbNasENgtm6SO3hC3,1663.5,1766543.299999982,1766091.799999982,prp,,False,1200.0,False,False,1212.0,T1→T2,1764879.799999982,117.0,585.5999999940395,long
blue,E,4,True,B,118,B,True,E,,1769577.0,GE4hogtdLdTFbNasENgtm6SO3hC3,1727.9000000059605,1769440.099999994,1768924.299999982,prp,,False,1200.0,False,False,1212.0999999940395,T1→T2,1767712.199999988,118.0,652.7000000178814,long
blue,O,9,True,B,119,B,True,O,,1772334.699999988,GE4hogtdLdTFbNasENgtm6SO3hC3,1038.0999999940395,1771638.799999982,1770770.799999982,prp,,False,150.0,False,False,170.09999999403954,T1→T2,1770600.699999988,119.0,1563.9000000059605,short
blue,E,4,True,B,0,B,True,E,,504940.5999999941,Qv0jhW3sqicqQvd7LfReAsI7nD73,1490.0,504933.400000006,503622.3000000119,prp,,False,150.0,False,False,178.90000000596046,T1→T2,503443.400000006,0.0,1318.2999999821186,short
blue,O,5,True,B,1,B,True,O,,507884.0999999941,Qv0jhW3sqicqQvd7LfReAsI7nD73,1902.0,507872.900000006,507185.2000000179,prp,,False,1200.0,False,False,1214.300000011921,T1→T2,505970.900000006,1.0,698.8999999761581,long
blue,O,1,True,B,2,B,True,O,,510100.7000000179,Qv0jhW3sqicqQvd7LfReAsI7nD73,1171.2000000178814,510084.7000000179,509093.7000000179,prp,,False,150.0,False,False,180.2000000178814,T1→T2,508913.5,2.0,1007.0,short
red,E,8,True,R,3,R,True,E,,512133.0999999941,Qv0jhW3sqicqQvd7LfReAsI7nD73,1029.2000000178814,512152.2000000179,511205.3000000119,prp,,True,50.0,False,False,82.30000001192093,T2→T1,511123.0,3.0,927.7999999821186,short
red,E,4,True,R,4,R,True,E,,514522.5,Qv0jhW3sqicqQvd7LfReAsI7nD73,1389.5,514562.0999999941,513484.400000006,prp,,True,300.0,False,False,311.80000001192093,T2→T1,513172.5999999941,4.0,1038.0999999940395,other
red,O,1,True,R,5,R,True,O,,516616.900000006,Qv0jhW3sqicqQvd7LfReAsI7nD73,1034.5,516623.7000000179,515773.5,prp,,True,150.0,False,False,184.2999999821186,T2→T1,515589.2000000179,5.0,843.4000000059605,short
blue,E,6,True,B,6,B,True,E,,518713.0,Qv0jhW3sqicqQvd7LfReAsI7nD73,1031.4000000059605,518704.900000006,517843.5999999941,prp,,False,150.0,False,False,170.09999999403954,T1→T2,517673.5,6.0,869.4000000059605,short
red,O,5,True,R,7,R,True,O,,520962.900000006,Qv0jhW3sqicqQvd7LfReAsI7nD73,1229.899999976158,520970.0999999941,520360.2000000179,prp,,True,600.0,False,False,620.0,T2→T1,519740.2000000179,7.0,602.6999999880791,other
blue,E,4,True,B,8,B,True,E,,523699.0999999941,Qv0jhW3sqicqQvd7LfReAsI7nD73,1704.5999999940395,523691.0,523203.2000000179,prp,,False,1200.0,False,False,1216.800000011921,T1→T2,521986.400000006,8.0,495.8999999761581,long
red,O,3,True,R,9,R,True,O,,525814.8000000119,Qv0jhW3sqicqQvd7LfReAsI7nD73,1098.5,525824.2000000179,525036.2000000179,prp,,True,300.0,False,False,310.5,T2→T1,524725.7000000179,9.0,778.5999999940395,other
red,E,4,True,R,10,R,True,E,,527878.900000006,Qv0jhW3sqicqQvd7LfReAsI7nD73,1043.0999999940395,527885.5,527019.7000000179,prp,,True,150.0,False,False,177.30000001192093,T2→T1,526842.400000006,10.0,859.1999999880791,short
red,O,5,True,R,11,R,True,O,,530226.7000000179,Qv0jhW3sqicqQvd7LfReAsI7nD73,1312.0999999940395,530218.599999994,529529.0,prp,,False,600.0,False,False,622.5,T1→T2,528906.5,11.0,697.7000000178814,other
blue,O,1,True,B,12,B,True,O,,532573.599999994,Qv0jhW3sqicqQvd7LfReAsI7nD73,1308.600000023842,532567.2000000179,531339.3000000119,prp,,False,50.0,False,False,80.7000000178814,T1→T2,531258.599999994,12.0,1234.2999999821186,short
red,O,9,True,R,13,R,True,O,,534725.3000000119,Qv0jhW3sqicqQvd7LfReAsI7nD73,1125.5,534717.2000000179,533923.599999994,prp,,False,300.0,False,False,331.89999997615814,T1→T2,533591.7000000179,13.0,801.7000000178814,other
red,E,8,True,R,14,R,True,E,,536877.7000000179,Qv0jhW3sqicqQvd7LfReAsI7nD73,1147.7999999821186,536889.599999994,536051.7000000179,prp,,True,300.0,False,False,309.90000000596046,T2→T1,535741.8000000119,14.0,826.0,other
blue,E,8,True,B,15,B,True,E,,539629.8000000119,Qv0jhW3sqicqQvd7LfReAsI7nD73,1755.300000011921,539663.2000000179,539140.2000000179,prp,,True,1200.0,False,False,1232.300000011921,T2→T1,537907.900000006,15.0,489.59999999403954,long
blue,O,5,True,B,16,B,True,O,,541810.900000006,Qv0jhW3sqicqQvd7LfReAsI7nD73,1109.5,541803.0,541006.2000000179,prp,,False,300.0,False,False,312.7000000178814,T1→T2,540693.5,16.0,804.6999999880791,other
red,E,8,True,R,17,R,True,E,,543718.400000006,Qv0jhW3sqicqQvd7LfReAsI7nD73,897.8000000119209,543741.2000000179,543007.0,prp,,True,150.0,False,False,163.59999999403954,T2→T1,542843.400000006,17.0,711.4000000059605,short
blue,E,6,True,B,18,B,True,E,,546358.7000000179,Qv0jhW3sqicqQvd7LfReAsI7nD73,1608.100000023842,546365.7000000179,545972.900000006,prp,,True,1200.0,False,False,1215.300000011921,T2→T1,544757.599999994,18.0,385.8000000119209,long
red,O,1,True,R,19,R,True,O,,549047.2000000179,Qv0jhW3sqicqQvd7LfReAsI7nD73,1672.7999999821186,549065.099999994,548607.2000000179,prp,,True,1200.0,False,False,1214.9000000059605,T2→T1,547392.3000000119,19.0,440.0,long
blue,O,5,True,B,20,B,True,O,,551717.599999994,Qv0jhW3sqicqQvd7LfReAsI7nD73,1632.600000023842,551727.2000000179,551300.599999994,prp,,True,1200.0,False,False,1206.0,T2→T1,550094.599999994,20.0,417.0,long
blue,O,9,True,B,21,B,True,O,,553818.3000000119,Qv0jhW3sqicqQvd7LfReAsI7nD73,1056.399999976158,553822.599999994,552821.8000000119,prp,,True,50.0,False,False,55.599999994039536,T2→T1,552766.2000000179,21.0,996.5,short
red,E,6,True,R,22,R,True,E,,555961.599999994,Qv0jhW3sqicqQvd7LfReAsI7nD73,1146.9000000059605,555987.3000000119,555458.599999994,prp,,True,600.0,False,False,618.1999999880791,T2→T1,554840.400000006,22.0,503.0,other
blue,E,6,True,B,23,B,True,E,,557757.900000006,Qv0jhW3sqicqQvd7LfReAsI7nD73,740.5,557750.099999994,557091.099999994,prp,,False,50.0,False,False,81.5,T1→T2,557009.599999994,23.0,666.8000000119209,short
blue,O,7,True,B,24,B,True,O,,560100.099999994,Qv0jhW3sqicqQvd7LfReAsI7nD73,1333.199999988079,560108.0,558939.8000000119,prp,,True,150.0,False,False,165.0,T2→T1,558774.8000000119,24.0,1160.2999999821186,short
red,O,3,True,R,25,R,True,O,,562793.8000000119,Qv0jhW3sqicqQvd7LfReAsI7nD73,1659.0999999940395,562785.5,562337.2000000179,prp,,False,1200.0,False,False,1210.800000011921,T1→T2,561126.400000006,25.0,456.59999999403954,long
blue,O,1,True,B,26,B,True,O,,565011.099999994,Qv0jhW3sqicqQvd7LfReAsI7nD73,1166.7999999821186,564976.5,563871.5,prp,,False,50.0,False,False,61.79999998211861,T1→T2,563809.7000000179,26.0,1139.5999999940395,short
red,O,9,True,R,27,R,True,O,,567208.099999994,Qv0jhW3sqicqQvd7LfReAsI7nD73,1187.0999999940395,567214.599999994,566647.099999994,prp,,True,600.0,False,False,619.5999999940395,T2→T1,566027.5,27.0,561.0,other
red,E,2,True,R,28,R,True,E,,569901.5,Qv0jhW3sqicqQvd7LfReAsI7nD73,1684.4000000059605,569926.2000000179,569456.2000000179,prp,,True,1200.0,False,False,1214.4000000059605,T2→T1,568241.8000000119,28.0,445.2999999821186,long
red,E,4,True,R,29,R,True,E,,573055.7000000179,Qv0jhW3sqicqQvd7LfReAsI7nD73,2129.4000000059605,573073.0,572156.3000000119,prp,,True,1200.0,False,False,1212.7000000178814,T2→T1,570943.599999994,29.0,899.4000000059605,long
blue,E,4,True,B,30,B,True,E,,585510.2000000179,Qv0jhW3sqicqQvd7LfReAsI7nD73,1437.199999988079,585531.099999994,584175.7000000179,prp,,True,50.0,False,False,81.80000001192093,T2→T1,584093.900000006,30.0,1334.5,short
red,E,6,True,R,31,R,True,E,,588270.8000000119,Qv0jhW3sqicqQvd7LfReAsI7nD73,1717.5,588279.0,587775.400000006,prp,,True,1200.0,False,False,1213.9000000059605,T2→T1,586561.5,31.0,495.40000000596046,long
red,E,4,True,R,32,R,True,E,,590456.400000006,Qv0jhW3sqicqQvd7LfReAsI7nD73,1191.0999999940395,590498.400000006,589915.099999994,prp,,True,600.0,False,False,607.7999999821186,T2→T1,589307.3000000119,32.0,541.3000000119209,other
blue,E,8,True,B,33,B,True,E,,592492.599999994,Qv0jhW3sqicqQvd7LfReAsI7nD73,978.5,592506.099999994,591706.3000000119,prp,,True,150.0,False,False,178.7000000178814,T2→T1,591527.599999994,33.0,786.2999999821186,short
blue,E,8,True,B,34,B,True,E,,594370.7000000179,Qv0jhW3sqicqQvd7LfReAsI7nD73,855.7000000178814,594384.2000000179,593706.400000006,prp,,True,150.0,False,False,177.90000000596046,T2→T1,593528.5,34.0,664.3000000119209,short
blue,E,6,True,B,35,B,True,E,,596495.3000000119,Qv0jhW3sqicqQvd7LfReAsI7nD73,1097.0,596508.5,596032.099999994,prp,,True,600.0,False,False,620.5999999940395,T2→T1,595411.5,35.0,463.2000000178814,other
red,O,9,True,R,36,R,True,O,,598752.900000006,Qv0jhW3sqicqQvd7LfReAsI7nD73,1217.7999999821186,598745.5,597609.599999994,prp,,False,50.0,False,False,81.89999997615814,T1→T2,597527.7000000179,36.0,1143.300000011921,short
blue,E,6,True,B,37,B,True,E,,600613.400000006,Qv0jhW3sqicqQvd7LfReAsI7nD73,850.3000000119209,600627.900000006,600097.7000000179,prp,,True,300.0,False,False,320.10000002384186,T2→T1,599777.599999994,37.0,515.6999999880791,other
red,E,8,True,R,38,R,True,E,,603044.8000000119,Qv0jhW3sqicqQvd7LfReAsI7nD73,1427.5,603068.3000000119,601709.5,prp,,True,50.0,False,False,68.69999998807907,T2→T1,601640.8000000119,38.0,1335.300000011921,short
red,O,5,True,R,39,R,True,O,,604976.0,Qv0jhW3sqicqQvd7LfReAsI7nD73,868.5,604962.2000000179,604257.7000000179,prp,,False,150.0,False,False,164.0,T1→T2,604093.7000000179,39.0,718.2999999821186,short
red,O,5,True,R,40,R,True,O,,606728.5,Qv0jhW3sqicqQvd7LfReAsI7nD73,726.0,606721.5,606178.3000000119,prp,,False,150.0,False,False,182.80000001192093,T1→T2,605995.5,40.0,550.1999999880791,short
red,O,7,True,R,41,R,True,O,,609378.8000000119,Qv0jhW3sqicqQvd7LfReAsI7nD73,1668.5,609412.599999994,608957.7000000179,prp,,True,1200.0,False,False,1213.600000023842,T2→T1,607744.099999994,41.0,421.09999999403954,long
blue,O,1,True,B,42,B,True,O,,611459.900000006,Qv0jhW3sqicqQvd7LfReAsI7nD73,1019.3000000119208,611448.7000000179,610743.5,prp,,False,300.0,False,False,314.09999999403954,T1→T2,610429.400000006,42.0,716.4000000059605,other
red,E,4,True,R,43,R,True,E,,613411.099999994,Qv0jhW3sqicqQvd7LfReAsI7nD73,942.4000000059604,613419.0,612657.7000000179,prp,,True,150.0,False,False,181.10000002384183,T2→T1,612476.599999994,43.0,753.3999999761581,short
blue,O,7,True,B,44,B,True,O,,615641.5,Qv0jhW3sqicqQvd7LfReAsI7nD73,1185.100000023842,615630.7000000179,615064.900000006,prp,,False,600.0,False,False,619.3000000119209,T1→T2,614445.599999994,44.0,576.5999999940395,other
red,E,8,True,R,45,R,True,E,,617683.599999994,Qv0jhW3sqicqQvd7LfReAsI7nD73,1035.899999976158,617698.599999994,616846.3000000119,prp,,True,150.0,False,False,183.59999999403956,T2→T1,616662.7000000179,45.0,837.2999999821186,short
blue,E,8,True,B,46,B,True,E,,619594.7000000179,Qv0jhW3sqicqQvd7LfReAsI7nD73,855.3000000119209,619585.2000000179,618808.900000006,prp,,False,50.0,False,False,79.0,T1→T2,618729.900000006,46.0,785.8000000119209,short
blue,E,6,True,B,47,B,True,E,,621662.900000006,Qv0jhW3sqicqQvd7LfReAsI7nD73,1057.0,621669.5,620792.3000000119,prp,,True,150.0,False,False,179.80000001192093,T2→T1,620612.5,47.0,870.5999999940395,short
blue,O,9,True,B,48,B,True,O,,623850.7000000179,Qv0jhW3sqicqQvd7LfReAsI7nD73,1132.4000000059605,623829.0,623316.099999994,prp,,False,600.0,False,False,619.5,T1→T2,622696.599999994,48.0,534.6000000238419,other
red,O,5,True,R,49,R,True,O,,626294.0,Qv0jhW3sqicqQvd7LfReAsI7nD73,1420.7999999821186,626300.5,624962.5,prp,,True,50.0,False,False,82.7999999821186,T2→T1,624879.7000000179,49.0,1331.5,short
blue,E,2,True,B,50,B,True,E,,628480.900000006,Qv0jhW3sqicqQvd7LfReAsI7nD73,1165.600000023842,628494.2000000179,627645.0,prp,,True,300.0,False,False,316.40000000596046,T2→T1,627328.599999994,50.0,835.9000000059605,other
red,E,2,True,R,51,R,True,E,,630373.8000000119,Qv0jhW3sqicqQvd7LfReAsI7nD73,859.6000000238419,630371.2000000179,629576.8000000119,prp,,False,50.0,False,False,65.2000000178814,T1→T2,629511.599999994,51.0,797.0,short
blue,E,4,True,B,52,B,True,E,,633385.900000006,Qv0jhW3sqicqQvd7LfReAsI7nD73,2009.9000000059605,633405.5,632610.2000000179,prp,,True,1200.0,False,False,1214.600000023842,T2→T1,631395.599999994,52.0,775.6999999880791,long
red,E,6,True,R,53,R,True,E,,635442.099999994,Qv0jhW3sqicqQvd7LfReAsI7nD73,1039.7999999821186,635471.5,635050.5,prp,,True,600.0,False,False,618.7999999821186,T2→T1,634431.7000000179,53.0,391.59999999403954,other
blue,O,5,True,B,54,B,True,O,,637891.8000000119,Qv0jhW3sqicqQvd7LfReAsI7nD73,1402.5,637899.2000000179,636676.900000006,prp,,True,150.0,False,False,180.19999998807907,T2→T1,636496.7000000179,54.0,1214.9000000059605,short
blue,O,5,True,B,55,B,True,O,,640489.0,Qv0jhW3sqicqQvd7LfReAsI7nD73,1547.199999988079,640478.099999994,639550.2000000179,prp,,False,600.0,False,False,619.3000000119209,T1→T2,638930.900000006,55.0,938.7999999821186,other
blue,E,6,True,B,57,B,True,E,,645058.099999994,Qv0jhW3sqicqQvd7LfReAsI7nD73,954.0,645082.2000000179,644209.8000000119,prp,,True,50.0,False,False,81.59999999403954,T2→T1,644128.2000000179,57.0,848.2999999821186,short
red,O,1,True,R,58,R,True,O,,647479.900000006,Qv0jhW3sqicqQvd7LfReAsI7nD73,1390.0,647489.599999994,646179.7000000179,prp,,True,50.0,False,False,80.10000002384186,T2→T1,646099.599999994,58.0,1300.199999988079,short
blue,O,9,True,B,59,B,True,O,,649688.0,Qv0jhW3sqicqQvd7LfReAsI7nD73,1162.199999988079,649680.099999994,649134.2000000179,prp,,False,600.0,False,False,616.3000000119209,T1→T2,648517.900000006,59.0,553.7999999821186,other
red,O,7,True,R,60,R,True,O,,662219.8000000119,Qv0jhW3sqicqQvd7LfReAsI7nD73,1234.5999999940395,661950.5,661030.099999994,prp,,False,300.0,False,False,314.19999998807907,T1→T2,660715.900000006,60.0,1189.7000000178814,other
blue,E,2,True,B,61,B,True,E,,664697.900000006,Qv0jhW3sqicqQvd7LfReAsI7nD73,1471.699999988079,664719.400000006,663427.099999994,prp,,True,150.0,False,False,179.39999997615814,T2→T1,663247.7000000179,61.0,1270.800000011921,short
red,E,6,True,R,62,R,True,E,,666800.5,Qv0jhW3sqicqQvd7LfReAsI7nD73,1079.5999999940395,666831.5,666368.5,prp,,True,600.0,False,False,616.5999999940395,T2→T1,665751.900000006,62.0,432.0,other
blue,E,8,True,B,63,B,True,E,,668973.099999994,Qv0jhW3sqicqQvd7LfReAsI7nD73,1124.0,668968.099999994,668452.2000000179,prp,,False,600.0,False,False,608.1000000238419,T1→T2,667844.099999994,63.0,520.8999999761581,other
blue,O,3,True,B,64,B,True,O,,670799.5,Qv0jhW3sqicqQvd7LfReAsI7nD73,775.0999999940395,670789.900000006,670094.7000000179,prp,,False,50.0,False,False,79.90000000596046,T1→T2,670014.8000000119,64.0,704.7999999821186,short
red,O,9,True,R,65,R,True,O,,672705.5,Qv0jhW3sqicqQvd7LfReAsI7nD73,885.5999999940395,672698.5,671878.3000000119,prp,,False,50.0,False,False,65.40000000596046,T1→T2,671812.900000006,65.0,827.1999999880791,short
red,E,6,True,R,66,R,True,E,,675422.8000000119,Qv0jhW3sqicqQvd7LfReAsI7nD73,1706.7999999821186,675438.5,674945.5,prp,,True,1200.0,False,False,1213.7999999821186,T2→T1,673731.7000000179,66.0,477.3000000119209,long
red,O,7,True,R,67,R,True,O,,677496.400000006,Qv0jhW3sqicqQvd7LfReAsI7nD73,1024.100000023842,677490.7000000179,676776.0,prp,,False,300.0,False,False,309.40000000596046,T1→T2,676466.599999994,67.0,720.4000000059605,other
blue,O,5,True,B,68,B,True,O,,680200.900000006,Qv0jhW3sqicqQvd7LfReAsI7nD73,1690.5,680207.599999994,679732.400000006,prp,,True,1200.0,False,False,1215.300000011921,T2→T1,678517.099999994,68.0,468.5,long
blue,O,1,True,B,69,B,True,O,,681945.099999994,Qv0jhW3sqicqQvd7LfReAsI7nD73,705.2000000178814,681936.7000000179,681296.0,prp,,False,50.0,False,False,64.5,T1→T2,681231.5,69.0,649.0999999940395,short
blue,O,5,True,B,70,B,True,O,,683754.400000006,Qv0jhW3sqicqQvd7LfReAsI7nD73,780.2000000178814,683747.8000000119,683282.0,prp,,False,300.0,False,False,314.40000000596046,T1→T2,682967.599999994,70.0,472.40000000596046,other
red,O,7,True,R,71,R,True,O,,686365.0,Qv0jhW3sqicqQvd7LfReAsI7nD73,1601.5999999940395,686386.3000000119,685996.5,prp,,True,1200.0,False,False,1211.7999999821186,T2→T1,684784.7000000179,71.0,368.5,long
blue,O,5,True,B,72,B,True,O,,688407.0,Qv0jhW3sqicqQvd7LfReAsI7nD73,996.399999976158,688414.099999994,688036.099999994,prp,,True,600.0,False,False,618.3999999761581,T2→T1,687417.7000000179,72.0,370.90000000596046,other
blue,E,6,True,B,73,B,True,E,,690841.099999994,Qv0jhW3sqicqQvd7LfReAsI7nD73,1400.7999999821186,690833.599999994,689747.3000000119,prp,,False,300.0,False,False,314.5,T1→T2,689432.8000000119,73.0,1093.7999999821186,other
blue,O,1,True,B,74,B,True,O,,692545.0,Qv0jhW3sqicqQvd7LfReAsI7nD73,689.3999999761581,692556.099999994,691945.7000000179,prp,,True,50.0,False,False,79.0,T2→T1,691866.7000000179,74.0,599.2999999821186,short
red,E,4,True,R,75,R,True,E,,694501.5,Qv0jhW3sqicqQvd7LfReAsI7nD73,925.7000000178814,694509.3000000119,693746.599999994,prp,,True,150.0,False,False,163.0,T2→T1,693583.599999994,75.0,754.9000000059605,short
blue,E,2,True,B,76,B,True,E,,696380.8000000119,Qv0jhW3sqicqQvd7LfReAsI7nD73,890.8999999761581,696422.599999994,695849.2000000179,prp,,True,300.0,False,False,317.5,T2→T1,695531.7000000179,76.0,531.5999999940395,other
blue,O,9,True,B,77,B,True,O,,699022.599999994,Qv0jhW3sqicqQvd7LfReAsI7nD73,547.8999999761581,697998.599999994,697632.3000000119,prp,,False,150.0,False,False,181.59999999403956,T1→T2,697450.7000000179,77.0,1390.2999999821186,short
red,O,1,True,R,78,R,True,O,,700978.2000000179,Qv0jhW3sqicqQvd7LfReAsI7nD73,898.8000000119209,700945.3000000119,700365.3000000119,prp,,False,300.0,False,False,318.80000001192093,T1→T2,700046.5,78.0,612.9000000059605,other
red,E,8,True,R,79,R,True,E,,703452.599999994,Qv0jhW3sqicqQvd7LfReAsI7nD73,1177.4000000059605,703179.0,702314.599999994,prp,,False,300.0,False,False,313.0,T1→T2,702001.599999994,79.0,1138.0,other
blue,E,6,True,B,80,B,True,E,,705738.5,Qv0jhW3sqicqQvd7LfReAsI7nD73,1234.300000011921,705719.8000000119,705100.2000000179,prp,,False,600.0,False,False,614.7000000178814,T1→T2,704485.5,80.0,638.2999999821186,other
red,O,3,True,R,81,R,True,O,,707808.3000000119,Qv0jhW3sqicqQvd7LfReAsI7nD73,1032.5,707801.0,706930.099999994,prp,,False,150.0,False,False,161.59999999403954,T1→T2,706768.5,81.0,878.2000000178814,short
red,O,5,True,R,82,R,True,O,,709867.8000000119,Qv0jhW3sqicqQvd7LfReAsI7nD73,1047.0999999940395,709879.8000000119,709454.3000000119,prp,,True,600.0,False,False,621.5999999940395,T2→T1,708832.7000000179,82.0,413.5,other
blue,O,3,True,B,83,B,True,O,,712578.3000000119,Qv0jhW3sqicqQvd7LfReAsI7nD73,1682.4000000059605,712584.0,712119.400000006,prp,,True,1200.0,False,False,1217.800000011921,T2→T1,710901.599999994,83.0,458.90000000596046,long
red,E,4,True,R,84,R,True,E,,714803.900000006,Qv0jhW3sqicqQvd7LfReAsI7nD73,1223.0,714825.5,714219.7000000179,prp,,True,600.0,False,False,617.2000000178814,T2→T1,713602.5,84.0,584.1999999880791,other
blue,E,4,True,B,85,B,True,E,,716723.5,Qv0jhW3sqicqQvd7LfReAsI7nD73,856.0,716706.8000000119,715933.2000000179,prp,,False,50.0,False,False,82.40000000596046,T1→T2,715850.8000000119,85.0,790.2999999821186,short
red,O,3,True,R,86,R,True,O,,719317.8000000119,Qv0jhW3sqicqQvd7LfReAsI7nD73,1543.0,719310.7000000179,718389.099999994,prp,,False,600.0,False,False,621.3999999761581,T1→T2,717767.7000000179,86.0,928.7000000178814,other
blue,O,1,True,B,87,B,True,O,,721915.599999994,Qv0jhW3sqicqQvd7LfReAsI7nD73,1251.9000000059605,721586.0,720650.2000000179,prp,,False,300.0,False,False,316.10000002384186,T1→T2,720334.099999994,87.0,1265.399999976158,other
red,O,1,True,R,88,R,True,O,,724025.599999994,Qv0jhW3sqicqQvd7LfReAsI7nD73,1039.199999988079,723973.900000006,723554.400000006,prp,,False,600.0,False,False,619.6999999880791,T1→T2,722934.7000000179,88.0,471.1999999880791,other
blue,O,3,True,B,89,B,True,O,,726395.5,Qv0jhW3sqicqQvd7LfReAsI7nD73,958.4000000059604,726005.900000006,725365.7000000179,prp,,False,300.0,False,False,318.2000000178814,T1→T2,725047.5,89.0,1029.7999999821186,other
red,E,4,True,R,90,R,True,E,,738526.5,Qv0jhW3sqicqQvd7LfReAsI7nD73,1129.699999988079,738549.5,737734.400000006,prp,,True,300.0,False,False,314.59999999403954,T2→T1,737419.8000000119,90.0,792.0999999940395,other
red,E,6,True,R,91,R,True,E,,740632.0,Qv0jhW3sqicqQvd7LfReAsI7nD73,1087.699999988079,740657.5,740191.2000000179,prp,,True,600.0,False,False,621.4000000059605,T2→T1,739569.8000000119,91.0,440.7999999821186,other
red,E,2,True,R,92,R,True,E,,743294.3000000119,Qv0jhW3sqicqQvd7LfReAsI7nD73,1649.0,743331.5,742901.3000000119,prp,,True,1200.0,False,False,1218.800000011921,T2→T1,741682.5,92.0,393.0,long
blue,E,8,True,B,93,B,True,E,,746006.099999994,Qv0jhW3sqicqQvd7LfReAsI7nD73,1648.4000000059605,746000.0,745565.400000006,prp,,False,1200.0,False,False,1213.800000011921,T1→T2,744351.599999994,93.0,440.6999999880791,long
blue,E,8,True,B,94,B,True,E,,748126.099999994,Qv0jhW3sqicqQvd7LfReAsI7nD73,1101.2999999821186,748133.5,747640.400000006,prp,,True,600.0,False,False,608.1999999880791,T2→T1,747032.2000000179,94.0,485.6999999880791,other
blue,O,9,True,B,95,B,True,O,,750953.5,Qv0jhW3sqicqQvd7LfReAsI7nD73,1774.0999999940395,750926.099999994,750365.599999994,prp,,False,1200.0,False,False,1213.5999999940395,T1→T2,749152.0,95.0,587.9000000059605,long
red,E,6,True,R,96,R,True,E,,752883.599999994,Qv0jhW3sqicqQvd7LfReAsI7nD73,905.5999999940396,752876.5,752150.8000000119,prp,,False,150.0,False,False,179.90000000596046,T1→T2,751970.900000006,96.0,732.7999999821186,short
blue,E,6,True,B,97,B,True,E,,754999.2000000179,Qv0jhW3sqicqQvd7LfReAsI7nD73,1106.300000011921,755010.2000000179,754523.3000000119,prp,,True,600.0,False,False,619.4000000059605,T2→T1,753903.900000006,97.0,475.90000000596046,other
red,O,1,True,R,98,R,True,O,,756869.0,Qv0jhW3sqicqQvd7LfReAsI7nD73,821.0999999940395,756859.099999994,756350.400000006,prp,,False,300.0,False,False,312.40000000596046,T1→T2,756038.0,98.0,518.5999999940395,other
red,E,8,True,R,99,R,True,E,,759033.5,Qv0jhW3sqicqQvd7LfReAsI7nD73,1166.2999999821186,759054.099999994,757965.900000006,prp,,True,50.0,False,False,78.09999999403954,T2→T1,757887.8000000119,99.0,1067.5999999940395,short
red,O,3,True,R,100,R,True,O,,761809.5,Qv0jhW3sqicqQvd7LfReAsI7nD73,1727.0,761813.3000000119,761306.900000006,prp,,True,1200.0,False,False,1220.5999999940395,T2→T1,760086.3000000119,100.0,502.59999999403954,long
red,O,5,True,R,101,R,True,O,,764547.099999994,Qv0jhW3sqicqQvd7LfReAsI7nD73,1740.800000011921,764574.400000006,764053.3000000119,prp,,True,1200.0,False,False,1219.7000000178814,T2→T1,762833.599999994,101.0,493.7999999821186,long
blue,O,7,True,B,102,B,True,O,,766970.7000000179,Qv0jhW3sqicqQvd7LfReAsI7nD73,1205.4000000059605,766809.0,765783.2000000179,prp,,False,150.0,False,False,179.60000002384186,T1→T2,765603.599999994,102.0,1187.5,short
red,O,7,True,R,103,R,True,O,,768796.5,Qv0jhW3sqicqQvd7LfReAsI7nD73,789.4000000059605,768781.2000000179,768165.900000006,prp,,False,150.0,False,False,174.09999999403954,T1→T2,767991.8000000119,103.0,630.5999999940395,short
red,O,7,True,R,104,R,True,O,,770559.2000000179,Qv0jhW3sqicqQvd7LfReAsI7nD73,729.8000000119209,770551.400000006,770001.0,prp,,False,150.0,False,False,179.40000000596046,T1→T2,769821.599999994,104.0,558.2000000178814,short
blue,O,3,True,B,105,B,True,O,,772599.7000000179,Qv0jhW3sqicqQvd7LfReAsI7nD73,965.0999999940396,772551.400000006,771902.400000006,prp,,False,300.0,False,False,316.09999999403954,T1→T2,771586.3000000119,105.0,697.3000000119209,other
red,E,8,True,R,106,R,True,E,,774984.7000000179,Qv0jhW3sqicqQvd7LfReAsI7nD73,1081.399999976158,774703.099999994,773933.8000000119,prp,,False,300.0,False,False,312.09999999403954,T1→T2,773621.7000000179,106.0,1050.9000000059605,other
blue,E,6,True,B,107,B,True,E,,777966.599999994,Qv0jhW3sqicqQvd7LfReAsI7nD73,1787.2999999821186,777789.099999994,777215.900000006,prp,,False,1200.0,False,False,1214.0999999940395,T1→T2,776001.8000000119,107.0,750.6999999880791,long
blue,E,6,True,B,108,B,True,E,,779958.900000006,Qv0jhW3sqicqQvd7LfReAsI7nD73,918.9000000059604,779907.5,779303.400000006,prp,,False,300.0,False,False,314.80000001192093,T1→T2,778988.599999994,108.0,655.5,other
blue,O,5,True,B,109,B,True,O,,782439.2000000179,Qv0jhW3sqicqQvd7LfReAsI7nD73,1314.4000000059605,782305.0,781608.3000000119,prp,,False,600.0,False,False,617.7000000178814,T1→T2,780990.599999994,109.0,830.9000000059605,other
blue,O,9,True,B,110,B,True,O,,784272.099999994,Qv0jhW3sqicqQvd7LfReAsI7nD73,633.9000000059605,784091.400000006,783638.5,prp,,False,150.0,False,False,181.0,T1→T2,783457.5,110.0,633.5999999940395,short
blue,O,3,True,B,111,B,True,O,,787138.900000006,Qv0jhW3sqicqQvd7LfReAsI7nD73,1469.7999999821186,786755.5,786500.2000000179,prp,,False,1200.0,False,False,1214.5,T1→T2,785285.7000000179,111.0,638.6999999880791,long
red,O,3,True,R,112,R,True,O,,788862.3000000119,Qv0jhW3sqicqQvd7LfReAsI7nD73,442.59999999403954,788594.599999994,788217.599999994,prp,,False,50.0,False,False,65.59999999403954,T1→T2,788152.0,112.0,644.7000000178814,short
red,O,9,True,R,113,R,True,O,,791064.2000000179,Qv0jhW3sqicqQvd7LfReAsI7nD73,512.6999999880791,790402.5,789971.599999994,prp,,False,50.0,False,False,81.7999999821186,T1→T2,789889.8000000119,113.0,1092.600000023842,short
red,E,4,True,R,114,R,True,E,,793672.0,Qv0jhW3sqicqQvd7LfReAsI7nD73,1094.199999988079,793180.0,792424.7000000179,prp,,False,300.0,False,False,338.90000000596046,T1→T2,792085.8000000119,114.0,1247.2999999821186,other
red,E,8,True,R,115,R,True,E,,795309.599999994,Qv0jhW3sqicqQvd7LfReAsI7nD73,559.5999999940395,795248.400000006,794773.900000006,prp,,False,50.0,False,False,85.09999999403954,T1→T2,794688.8000000119,115.0,535.6999999880791,short
blue,E,2,True,B,116,B,True,E,,797221.8000000119,Qv0jhW3sqicqQvd7LfReAsI7nD73,816.6999999880791,797156.400000006,796654.3000000119,prp,,False,300.0,False,False,314.59999999403954,T1→T2,796339.7000000179,116.0,567.5,other
blue,E,8,True,B,117,B,True,E,,799319.5,Qv0jhW3sqicqQvd7LfReAsI7nD73,1053.5,799291.7000000179,798859.599999994,prp,,False,600.0,False,False,621.3999999761581,T1→T2,798238.2000000179,117.0,459.90000000596046,other
red,E,4,True,R,118,R,True,E,,802110.099999994,Qv0jhW3sqicqQvd7LfReAsI7nD73,1697.4000000059605,802038.2000000179,801553.5,prp,,False,1200.0,False,False,1212.699999988079,T1→T2,800340.8000000119,118.0,556.5999999940395,long
red,E,2,True,R,119,R,True,E,,804001.5,Qv0jhW3sqicqQvd7LfReAsI7nD73,822.0999999940395,803961.900000006,803204.599999994,prp,,False,50.0,False,False,64.7999999821186,T1→T2,803139.8000000119,119.0,796.9000000059605,short
red,E,2,True,R,0,R,True,E,,521709.3000000715,ORvIk1xRWIQmKuLVe6GXNouvAXx2,1014.0,521463.10000002384,520513.8000000715,prp,,False,50.0,False,False,64.70000004768372,T1→T2,520449.10000002384,0.0,1195.5,short
blue,E,6,True,B,1,B,True,E,,523730.8000000715,ORvIk1xRWIQmKuLVe6GXNouvAXx2,708.1000000238419,523435.8000000715,522904.60000002384,prp,,False,150.0,False,False,176.89999997615814,T1→T2,522727.7000000477,1.0,826.2000000476837,short
red,O,9,True,R,2,R,True,O,,526661.3000000715,ORvIk1xRWIQmKuLVe6GXNouvAXx2,661.3999999761581,525425.8000000715,525982.9000000954,prp,,False,1200.0,False,False,1218.5,T1→T2,524764.4000000954,2.0,678.3999999761581,long
red,O,9,True,R,4,R,True,O,,531110.0,ORvIk1xRWIQmKuLVe6GXNouvAXx2,924.1999999284744,530621.0,530014.1000000238,prp,,False,300.0,False,False,317.2999999523163,T1→T2,529696.8000000715,4.0,1095.899999976158,other
blue,E,8,True,B,5,B,True,E,,534366.7000000477,ORvIk1xRWIQmKuLVe6GXNouvAXx2,972.8000000715256,533102.8000000715,533350.2000000477,prp,,False,1200.0,False,False,1220.2000000476835,T1→T2,532130.0,5.0,1016.5,long
red,E,2,True,R,6,R,True,E,,537580.6000000238,ORvIk1xRWIQmKuLVe6GXNouvAXx2,1059.5,536442.2000000477,536602.9000000954,prp,,False,1200.0,False,False,1220.2000000476835,T1→T2,535382.7000000477,6.0,977.6999999284744,long
red,E,6,True,R,7,R,True,E,,540331.7000000477,ORvIk1xRWIQmKuLVe6GXNouvAXx2,1131.0999999046326,539741.0,539225.3000000715,prp,,False,600.0,False,False,615.3999999761581,T1→T2,538609.9000000954,7.0,1106.399999976158,other
blue,E,2,True,B,8,B,True,E,,542511.6000000238,ORvIk1xRWIQmKuLVe6GXNouvAXx2,786.7999999523163,542134.6000000238,541523.6000000238,prp,,False,150.0,False,False,175.79999995231628,T1→T2,541347.8000000715,8.0,988.0,short
red,E,4,True,R,9,R,True,E,,544629.1000000238,ORvIk1xRWIQmKuLVe6GXNouvAXx2,843.4000000953674,544377.4000000954,543598.7000000477,prp,,False,50.0,False,False,64.70000004768372,T1→T2,543534.0,9.0,1030.399999976158,short
red,E,4,True,R,10,R,True,E,,546815.0,ORvIk1xRWIQmKuLVe6GXNouvAXx2,764.5,546418.4000000954,546268.5,prp,,False,600.0,False,False,614.5999999046326,T1→T2,545653.9000000954,10.0,546.5,other
blue,E,2,True,B,11,B,True,E,,548803.1000000238,ORvIk1xRWIQmKuLVe6GXNouvAXx2,628.0,548471.0,548165.5,prp,,False,300.0,False,False,322.5,T1→T2,547843.0,11.0,637.6000000238419,other
red,O,3,True,R,12,R,True,O,,550936.3000000715,ORvIk1xRWIQmKuLVe6GXNouvAXx2,727.4000000953674,550552.4000000954,550437.5,prp,,False,600.0,False,False,612.5,T1→T2,549825.0,12.0,498.8000000715256,other
blue,O,7,True,B,13,B,True,O,,554090.4000000954,ORvIk1xRWIQmKuLVe6GXNouvAXx2,1213.5,553170.4000000954,552022.1000000238,prp,,False,50.0,False,False,65.19999992847443,T1→T2,551956.9000000954,13.0,2068.3000000715256,short
blue,O,1,True,B,15,B,True,O,,559689.2000000477,ORvIk1xRWIQmKuLVe6GXNouvAXx2,851.3000000715256,558679.3000000715,559042.4000000954,prp,,False,1200.0,False,False,1214.4000000953674,T1→T2,557828.0,15.0,646.7999999523163,long
red,O,7,True,R,17,R,True,O,,566680.4000000954,ORvIk1xRWIQmKuLVe6GXNouvAXx2,1400.600000023842,566223.3000000715,565430.1000000238,prp,,False,600.0,False,False,607.3999999761581,T1→T2,564822.7000000477,17.0,1250.3000000715256,other
red,O,5,True,R,18,R,True,O,,568747.5,ORvIk1xRWIQmKuLVe6GXNouvAXx2,652.8999999761581,568358.6000000238,567774.8000000715,prp,,False,50.0,False,False,69.10000002384186,T1→T2,567705.7000000477,18.0,972.6999999284744,short
blue,O,3,True,B,19,B,True,O,,571525.6000000238,ORvIk1xRWIQmKuLVe6GXNouvAXx2,1012.5,570784.9000000954,571019.4000000954,prp,,False,1200.0,False,False,1247.0,T1→T2,569772.4000000954,19.0,506.1999999284744,long
red,O,7,True,R,20,R,True,O,,574313.9000000954,ORvIk1xRWIQmKuLVe6GXNouvAXx2,636.0,573189.2000000477,572860.4000000954,prp,,False,300.0,False,False,307.2000000476837,T1→T2,572553.2000000477,20.0,1453.5,other
blue,E,8,True,B,21,B,True,E,,577058.5,ORvIk1xRWIQmKuLVe6GXNouvAXx2,899.6000000238419,576233.9000000954,576552.4000000954,prp,,False,1200.0,False,False,1218.100000023842,T1→T2,575334.3000000715,21.0,506.09999990463257,long
red,E,6,True,R,22,R,True,E,,580104.5,ORvIk1xRWIQmKuLVe6GXNouvAXx2,1144.6999999284744,579232.1000000238,578393.7000000477,prp,,False,300.0,False,False,306.2999999523163,T1→T2,578087.4000000954,22.0,1710.7999999523165,other
blue,O,9,True,B,23,B,True,O,,583147.6000000238,ORvIk1xRWIQmKuLVe6GXNouvAXx2,1493.899999976158,582627.5,581751.1000000238,prp,,False,600.0,False,False,617.5,T1→T2,581133.6000000238,23.0,1396.5,other
blue,E,4,True,B,24,B,True,E,,585769.9000000954,ORvIk1xRWIQmKuLVe6GXNouvAXx2,791.6000000238419,584964.8000000715,584239.0,prp,,False,50.0,False,False,65.79999995231628,T1→T2,584173.2000000477,24.0,1530.9000000953674,short
blue,O,1,True,B,25,B,True,O,,588286.4000000954,ORvIk1xRWIQmKuLVe6GXNouvAXx2,876.3000000715256,587671.9000000954,586960.4000000954,prp,,False,150.0,False,False,164.80000007152557,T1→T2,586795.6000000238,25.0,1326.0,short
blue,O,1,True,B,26,B,True,O,,590469.6000000238,ORvIk1xRWIQmKuLVe6GXNouvAXx2,635.1000000238419,589950.9000000954,589921.4000000954,prp,,False,600.0,False,False,605.6000000238419,T1→T2,589315.8000000715,26.0,548.1999999284744,other
blue,O,7,True,B,27,B,True,O,,592860.4000000954,ORvIk1xRWIQmKuLVe6GXNouvAXx2,586.0999999046326,592079.0,591676.3000000715,prp,,False,150.0,False,False,183.3999999761581,T1→T2,591492.9000000954,27.0,1184.100000023842,short
blue,E,2,True,B,28,B,True,E,,595565.9000000954,ORvIk1xRWIQmKuLVe6GXNouvAXx2,927.899999976158,594812.1000000238,595091.1000000238,prp,,False,1200.0,False,False,1206.899999976158,T1→T2,593884.2000000477,28.0,474.8000000715256,long
blue,E,6,True,B,29,B,True,E,,597657.2000000477,ORvIk1xRWIQmKuLVe6GXNouvAXx2,742.7999999523163,597333.0,596897.8000000715,prp,,False,300.0,False,False,307.60000002384186,T1→T2,596590.2000000477,29.0,759.3999999761581,other
blue,O,3,True,B,30,B,True,O,,609653.3000000715,ORvIk1xRWIQmKuLVe6GXNouvAXx2,657.3999999761581,609348.5,608759.1000000238,prp,,False,50.0,False,False,68.0,T1→T2,608691.1000000238,30.0,894.2000000476837,short
blue,E,4,True,B,31,B,True,E,,612330.1000000238,ORvIk1xRWIQmKuLVe6GXNouvAXx2,536.1000000238419,611219.3000000715,611902.0,prp,,False,1200.0,False,False,1218.7999999523165,T1→T2,610683.2000000477,31.0,428.10000002384186,long
blue,O,9,True,B,33,B,True,O,,617419.9000000954,ORvIk1xRWIQmKuLVe6GXNouvAXx2,559.0,616660.9000000954,616729.4000000954,prp,,False,600.0,False,False,627.5,T1→T2,616101.9000000954,33.0,690.5,other
red,O,1,True,R,34,R,True,O,,619413.5,ORvIk1xRWIQmKuLVe6GXNouvAXx2,490.5,618926.9000000954,618743.5,prp,,False,300.0,False,False,307.09999990463257,T1→T2,618436.4000000954,34.0,670.0,other
blue,E,2,True,B,35,B,True,E,,621449.1000000238,ORvIk1xRWIQmKuLVe6GXNouvAXx2,635.1000000238419,621073.4000000954,621043.6000000238,prp,,False,600.0,False,False,605.2999999523163,T1→T2,620438.3000000715,35.0,405.5,other
blue,O,9,True,B,36,B,True,O,,624246.7000000477,ORvIk1xRWIQmKuLVe6GXNouvAXx2,828.0,623318.9000000954,623699.4000000954,prp,,False,1200.0,False,False,1208.5,T1→T2,622490.9000000954,36.0,547.2999999523163,long
red,O,7,True,R,37,R,True,O,,626352.3000000715,ORvIk1xRWIQmKuLVe6GXNouvAXx2,751.8999999761581,626026.3000000715,625881.2000000477,prp,,False,600.0,False,False,606.7999999523163,T1→T2,625274.4000000954,37.0,471.10000002384186,other
blue,O,5,True,B,38,B,True,O,,628322.2000000477,ORvIk1xRWIQmKuLVe6GXNouvAXx2,690.9000000953674,628060.9000000954,627546.7000000477,prp,,False,150.0,False,False,176.70000004768372,T1→T2,627370.0,38.0,775.5,short
red,O,1,True,R,40,R,True,O,,632904.3000000715,ORvIk1xRWIQmKuLVe6GXNouvAXx2,539.0,631861.2000000477,631644.8000000715,prp,,False,300.0,False,False,322.60000002384186,T1→T2,631322.2000000477,40.0,1259.5,other
red,O,3,True,R,41,R,True,O,,635994.4000000954,ORvIk1xRWIQmKuLVe6GXNouvAXx2,697.1999999284744,634624.6000000238,634236.1000000238,prp,,False,300.0,False,False,308.6999999284744,T1→T2,633927.4000000954,41.0,1758.3000000715256,other
red,E,4,True,R,42,R,True,E,,638505.4000000954,ORvIk1xRWIQmKuLVe6GXNouvAXx2,845.0,637859.5,637630.5,prp,,False,600.0,False,False,616.0,T1→T2,637014.5,42.0,874.9000000953674,other
red,E,2,True,R,43,R,True,E,,640414.5,ORvIk1xRWIQmKuLVe6GXNouvAXx2,580.0,640105.2000000477,639698.0,prp,,False,150.0,False,False,172.79999995231628,T1→T2,639525.2000000477,43.0,716.5,short
blue,E,2,True,B,44,B,True,E,,642381.9000000954,ORvIk1xRWIQmKuLVe6GXNouvAXx2,508.3000000715256,641944.3000000715,642063.3000000715,prp,,False,600.0,False,False,627.3000000715256,T1→T2,641436.0,44.0,318.60000002384186,other
blue,E,6,True,B,45,B,True,E,,644569.3000000715,ORvIk1xRWIQmKuLVe6GXNouvAXx2,655.0,644069.7000000477,644029.4000000954,prp,,False,600.0,False,False,614.7000000476837,T1→T2,643414.7000000477,45.0,539.8999999761581,other
red,E,4,True,R,46,R,True,E,,646491.7000000477,ORvIk1xRWIQmKuLVe6GXNouvAXx2,573.2000000476837,646161.3000000715,645894.5,prp,,False,300.0,False,False,306.39999997615814,T1→T2,645588.1000000238,46.0,597.2000000476837,other
red,O,9,True,R,47,R,True,O,,650005.3000000715,ORvIk1xRWIQmKuLVe6GXNouvAXx2,1819.6999999284744,649347.1000000238,647694.5,prp,,False,150.0,False,False,167.09999990463257,T1→T2,647527.4000000954,47.0,2310.8000000715256,short
blue,E,2,True,B,48,B,True,E,,653016.7000000477,ORvIk1xRWIQmKuLVe6GXNouvAXx2,1334.3000000715256,652357.9000000954,651640.3000000715,prp,,False,600.0,False,False,616.7000000476837,T1→T2,651023.6000000238,48.0,1376.399999976158,other
red,O,9,True,R,49,R,True,O,,655130.2000000477,ORvIk1xRWIQmKuLVe6GXNouvAXx2,520.1000000238419,654555.3000000715,654665.9000000954,prp,,False,600.0,False,False,630.7000000476837,T1→T2,654035.2000000477,49.0,464.2999999523163,other
red,E,6,True,R,50,R,True,E,,657878.8000000715,ORvIk1xRWIQmKuLVe6GXNouvAXx2,1252.2000000476835,657406.7000000477,656461.5,prp,,False,300.0,False,False,307.0,T1→T2,656154.5,50.0,1417.3000000715256,other
blue,O,7,True,B,51,B,True,O,,660022.9000000954,ORvIk1xRWIQmKuLVe6GXNouvAXx2,778.5999999046326,659677.5,659515.4000000954,prp,,False,600.0,False,False,616.5,T1→T2,658898.9000000954,51.0,507.5,other
blue,O,3,True,B,52,B,True,O,,662728.9000000954,ORvIk1xRWIQmKuLVe6GXNouvAXx2,600.1000000238419,661643.2000000477,662264.0,prp,,False,1200.0,False,False,1220.899999976158,T1→T2,661043.1000000238,52.0,464.9000000953674,long
blue,O,5,True,B,53,B,True,O,,664806.8000000715,ORvIk1xRWIQmKuLVe6GXNouvAXx2,663.2000000476837,664429.7000000477,664385.3000000715,prp,,False,600.0,False,False,618.8000000715256,T1→T2,663766.5,53.0,421.5,other
blue,O,3,True,B,54,B,True,O,,667493.2000000477,ORvIk1xRWIQmKuLVe6GXNouvAXx2,488.2999999523163,666318.2000000477,667042.2000000477,prp,,False,1200.0,False,False,1212.2999999523165,T1→T2,665829.9000000954,54.0,451.0,long
blue,O,7,True,B,56,B,True,O,,672242.0,ORvIk1xRWIQmKuLVe6GXNouvAXx2,834.5999999046326,672012.0,671245.9000000954,prp,,False,50.0,False,False,68.5,T1→T2,671177.4000000954,56.0,996.0999999046326,short
red,O,1,True,R,57,R,True,O,,674199.8000000715,ORvIk1xRWIQmKuLVe6GXNouvAXx2,476.7999999523163,673736.1000000238,673580.9000000954,prp,,False,300.0,False,False,321.60000002384186,T1→T2,673259.3000000715,57.0,618.8999999761581,other
red,O,1,True,R,58,R,True,O,,676746.1000000238,ORvIk1xRWIQmKuLVe6GXNouvAXx2,1112.0,676346.2000000477,675300.6000000238,prp,,False,50.0,False,False,66.39999997615814,T1→T2,675234.2000000477,58.0,1445.5,short
blue,O,5,True,B,59,B,True,O,,679315.0,ORvIk1xRWIQmKuLVe6GXNouvAXx2,591.7000000476837,678369.7000000477,678994.9000000954,prp,,False,1200.0,False,False,1216.9000000953674,T1→T2,677778.0,59.0,320.09999990463257,long
red,E,8,True,R,60,R,True,E,,691227.0,ORvIk1xRWIQmKuLVe6GXNouvAXx2,565.8999999761581,690911.5,690518.4000000954,prp,,False,150.0,False,False,172.80000007152557,T1→T2,690345.6000000238,60.0,708.5999999046326,short
blue,O,1,True,B,61,B,True,O,,692912.7000000477,ORvIk1xRWIQmKuLVe6GXNouvAXx2,426.7000000476837,692668.7000000477,692319.2000000477,prp,,False,50.0,False,False,77.20000004768372,T1→T2,692242.0,61.0,593.5,short
red,E,6,True,R,62,R,True,E,,694624.7000000477,ORvIk1xRWIQmKuLVe6GXNouvAXx2,490.5,694438.2000000477,694119.7000000477,prp,,False,150.0,False,False,172.0,T1→T2,693947.7000000477,62.0,505.0,short
red,O,1,True,R,63,R,True,O,,696701.5,ORvIk1xRWIQmKuLVe6GXNouvAXx2,918.100000023842,696556.6000000238,695716.3000000715,prp,,False,50.0,False,False,77.80000007152557,T1→T2,695638.5,63.0,985.1999999284744,short
red,E,8,True,R,65,R,True,E,,702159.4000000954,ORvIk1xRWIQmKuLVe6GXNouvAXx2,828.0,701940.0,701429.4000000954,prp,,False,300.0,False,False,317.40000009536743,T1→T2,701112.0,65.0,730.0,other
blue,E,8,True,B,66,B,True,E,,703989.8000000715,ORvIk1xRWIQmKuLVe6GXNouvAXx2,529.2999999523163,703705.2000000477,703498.3000000715,prp,,False,300.0,False,False,322.39999997615814,T1→T2,703175.9000000954,66.0,491.5,other
blue,E,4,True,B,68,B,True,E,,708919.8000000715,ORvIk1xRWIQmKuLVe6GXNouvAXx2,946.2999999523164,708679.5,707805.1000000238,prp,,False,50.0,False,False,71.89999997615814,T1→T2,707733.2000000477,68.0,1114.7000000476835,short
red,O,1,True,R,69,R,True,O,,710939.9000000954,ORvIk1xRWIQmKuLVe6GXNouvAXx2,800.5,710738.4000000954,710121.7000000477,prp,,False,150.0,False,False,183.79999995231628,T1→T2,709937.9000000954,69.0,818.2000000476837,short
blue,O,7,True,B,70,B,True,O,,713096.2000000477,ORvIk1xRWIQmKuLVe6GXNouvAXx2,865.6000000238419,712835.4000000954,712278.6000000238,prp,,False,300.0,False,False,308.7999999523163,T1→T2,711969.8000000715,70.0,817.6000000238419,other
blue,E,4,True,B,71,B,True,E,,714963.1000000238,ORvIk1xRWIQmKuLVe6GXNouvAXx2,569.2000000476837,714685.9000000954,714436.5,prp,,False,300.0,False,False,319.7999999523163,T1→T2,714116.7000000477,71.0,526.6000000238419,other
blue,O,7,True,B,72,B,True,O,,717296.1000000238,ORvIk1xRWIQmKuLVe6GXNouvAXx2,614.1999999284744,716614.6000000238,716171.3000000715,prp,,False,150.0,False,False,170.89999997615814,T1→T2,716000.4000000954,72.0,1124.7999999523165,short
red,E,8,True,R,73,R,True,E,,720347.5,ORvIk1xRWIQmKuLVe6GXNouvAXx2,1635.2000000476835,719963.9000000954,718505.2000000477,prp,,False,150.0,False,False,176.5,T1→T2,718328.7000000477,73.0,1842.2999999523165,short
blue,E,2,True,B,74,B,True,E,,722953.2000000477,ORvIk1xRWIQmKuLVe6GXNouvAXx2,962.100000023842,722342.6000000238,721700.5,prp,,False,300.0,False,False,320.0,T1→T2,721380.5,74.0,1252.7000000476835,other
red,E,2,True,R,75,R,True,E,,725428.2000000477,ORvIk1xRWIQmKuLVe6GXNouvAXx2,1032.600000023842,725016.2000000477,724157.5,prp,,False,150.0,False,False,173.89999997615814,T1→T2,723983.6000000238,75.0,1270.7000000476835,short
blue,E,6,True,B,76,B,True,E,,727553.9000000954,ORvIk1xRWIQmKuLVe6GXNouvAXx2,900.899999976158,727356.5,726519.0,prp,,False,50.0,False,False,63.39999997615814,T1→T2,726455.6000000238,76.0,1034.9000000953674,short
red,O,9,True,R,77,R,True,O,,730238.7000000477,ORvIk1xRWIQmKuLVe6GXNouvAXx2,637.7000000476837,729220.7000000477,729805.3000000715,prp,,False,1200.0,False,False,1222.3000000715256,T1→T2,728583.0,77.0,433.3999999761581,long
red,E,4,True,R,79,R,True,E,,735583.4000000954,ORvIk1xRWIQmKuLVe6GXNouvAXx2,1363.0,735153.2000000477,733856.5,prp,,False,50.0,False,False,66.29999995231628,T1→T2,733790.2000000477,79.0,1726.9000000953674,short
blue,O,5,True,B,80,B,True,O,,739836.5,ORvIk1xRWIQmKuLVe6GXNouvAXx2,2810.899999976158,739421.7000000477,736933.0,prp,,False,300.0,False,False,322.1999999284744,T1→T2,736610.8000000715,80.0,2903.5,other
red,E,8,True,R,81,R,True,E,,741737.4000000954,ORvIk1xRWIQmKuLVe6GXNouvAXx2,601.0,741486.9000000954,741056.9000000954,prp,,False,150.0,False,False,171.0,T1→T2,740885.9000000954,81.0,680.5,short
red,O,9,True,R,82,R,True,O,,744512.0,ORvIk1xRWIQmKuLVe6GXNouvAXx2,695.3999999761581,743463.2000000477,743980.8000000715,prp,,False,1200.0,False,False,1213.0,T1→T2,742767.8000000715,82.0,531.1999999284744,long
red,E,2,True,R,83,R,True,E,,747003.9000000954,ORvIk1xRWIQmKuLVe6GXNouvAXx2,872.2000000476837,746410.7000000477,746153.7000000477,prp,,False,600.0,False,False,615.2000000476837,T1→T2,745538.5,83.0,850.2000000476837,other
red,O,9,True,R,84,R,True,O,,749904.5,ORvIk1xRWIQmKuLVe6GXNouvAXx2,1522.399999976158,749553.1000000238,749245.7000000477,prp,,False,1200.0,False,False,1215.0,T1→T2,748030.7000000477,84.0,658.7999999523163,long
blue,E,4,True,B,85,B,True,E,,752478.5,ORvIk1xRWIQmKuLVe6GXNouvAXx2,620.2999999523163,751558.6000000238,752153.0,prp,,False,1200.0,False,False,1214.6999999284744,T1→T2,750938.3000000715,85.0,325.5,long
blue,O,7,True,B,86,B,True,O,,755280.4000000954,ORvIk1xRWIQmKuLVe6GXNouvAXx2,925.8000000715256,754428.4000000954,753824.6000000238,prp,,False,300.0,False,False,322.0,T1→T2,753502.6000000238,86.0,1455.8000000715256,other
red,E,8,True,R,87,R,True,E,,757480.7000000477,ORvIk1xRWIQmKuLVe6GXNouvAXx2,907.5,757212.3000000715,756614.5,prp,,False,300.0,False,False,309.6999999284744,T1→T2,756304.8000000715,87.0,866.2000000476837,other
red,O,9,True,R,88,R,True,O,,759713.7000000477,ORvIk1xRWIQmKuLVe6GXNouvAXx2,564.0999999046326,759066.0,758576.8000000715,prp,,False,50.0,False,False,74.89999997615814,T1→T2,758501.9000000954,88.0,1136.899999976158,short
red,E,8,True,R,89,R,True,E,,761992.5,ORvIk1xRWIQmKuLVe6GXNouvAXx2,757.6999999284744,761490.5,761351.5,prp,,False,600.0,False,False,618.6999999284744,T1→T2,760732.8000000715,89.0,641.0,other
red,E,6,True,R,91,R,True,E,,776526.3000000715,ORvIk1xRWIQmKuLVe6GXNouvAXx2,737.8999999761581,776313.0,775882.4000000954,prp,,False,300.0,False,False,307.3000000715256,T1→T2,775575.1000000238,91.0,643.8999999761581,other
red,O,9,True,R,92,R,True,O,,779471.6000000238,ORvIk1xRWIQmKuLVe6GXNouvAXx2,1471.1999999284744,779018.5,778170.1000000238,prp,,False,600.0,False,False,622.7999999523163,T1→T2,777547.3000000715,92.0,1301.5,other
blue,E,4,True,B,93,B,True,E,,781446.3000000715,ORvIk1xRWIQmKuLVe6GXNouvAXx2,756.1000000238419,781254.3000000715,780661.7000000477,prp,,False,150.0,False,False,163.5,T1→T2,780498.2000000477,93.0,784.6000000238419,short
red,O,3,True,R,94,R,True,O,,784270.3000000715,ORvIk1xRWIQmKuLVe6GXNouvAXx2,1183.5,783656.1000000238,782538.9000000954,prp,,False,50.0,False,False,66.30000007152557,T1→T2,782472.6000000238,94.0,1731.399999976158,short
red,E,4,True,R,95,R,True,E,,787443.5,ORvIk1xRWIQmKuLVe6GXNouvAXx2,740.7999999523163,786032.6000000238,786503.1000000238,prp,,False,1200.0,False,False,1211.2999999523165,T1→T2,785291.8000000715,95.0,940.399999976158,long
blue,O,3,True,B,96,B,True,O,,790790.8000000715,ORvIk1xRWIQmKuLVe6GXNouvAXx2,2049.600000023842,790526.9000000954,789090.8000000715,prp,,False,600.0,False,False,613.5,T1→T2,788477.3000000715,96.0,1700.0,other
blue,E,4,True,B,97,B,True,E,,793285.7000000477,ORvIk1xRWIQmKuLVe6GXNouvAXx2,1045.3000000715256,792860.8000000715,791996.5,prp,,False,150.0,False,False,181.0,T1→T2,791815.5,97.0,1289.2000000476835,short
blue,O,1,True,B,98,B,True,O,,795632.2000000477,ORvIk1xRWIQmKuLVe6GXNouvAXx2,932.600000023842,795247.2000000477,794493.8000000715,prp,,False,150.0,False,False,179.20000004768372,T1→T2,794314.6000000238,98.0,1138.399999976158,short
blue,E,6,True,B,99,B,True,E,,797594.4000000954,ORvIk1xRWIQmKuLVe6GXNouvAXx2,709.2999999523163,797370.6000000238,796973.8000000715,prp,,False,300.0,False,False,312.5,T1→T2,796661.3000000715,99.0,620.6000000238419,other
red,E,6,True,R,100,R,True,E,,800359.7000000477,ORvIk1xRWIQmKuLVe6GXNouvAXx2,531.0,799147.9000000954,799837.2000000477,prp,,False,1200.0,False,False,1220.2999999523165,T1→T2,798616.9000000954,100.0,522.5,long
red,O,7,True,R,101,R,True,O,,802376.0,ORvIk1xRWIQmKuLVe6GXNouvAXx2,743.6000000238419,802126.1000000238,801547.3000000715,prp,,False,150.0,False,False,164.80000007152557,T1→T2,801382.5,101.0,828.6999999284744,short
red,O,7,True,R,102,R,True,O,,804896.1000000238,ORvIk1xRWIQmKuLVe6GXNouvAXx2,438.3999999761581,803834.3000000715,804611.1000000238,prp,,False,1200.0,False,False,1215.1999999284744,T1→T2,803395.9000000954,102.0,285.0,long
red,O,5,True,R,103,R,True,O,,806986.1000000238,ORvIk1xRWIQmKuLVe6GXNouvAXx2,813.3999999761581,806733.1000000238,806095.1000000238,prp,,False,150.0,False,False,175.39999997615814,T1→T2,805919.7000000477,103.0,891.0,short
red,O,9,True,R,104,R,True,O,,808849.7000000477,ORvIk1xRWIQmKuLVe6GXNouvAXx2,624.9000000953674,808642.9000000954,808080.1000000238,prp,,False,50.0,False,False,62.10000002384186,T1→T2,808018.0,104.0,769.6000000238419,short
blue,O,5,True,B,106,B,True,O,,814535.7000000477,ORvIk1xRWIQmKuLVe6GXNouvAXx2,1400.0999999046326,813977.0,812899.2000000477,prp,,False,300.0,False,False,322.2999999523163,T1→T2,812576.9000000954,106.0,1636.5,other
blue,O,9,True,B,107,B,True,O,,817199.5,ORvIk1xRWIQmKuLVe6GXNouvAXx2,1091.0,816662.8000000715,815889.9000000954,prp,,False,300.0,False,False,318.10000002384186,T1→T2,815571.8000000715,107.0,1309.5999999046326,other
red,O,3,True,R,108,R,True,O,,820004.1000000238,ORvIk1xRWIQmKuLVe6GXNouvAXx2,667.9000000953674,818896.4000000954,819434.5,prp,,False,1200.0,False,False,1206.0,T1→T2,818228.5,108.0,569.6000000238419,long
red,O,7,True,R,109,R,True,O,,822067.9000000954,ORvIk1xRWIQmKuLVe6GXNouvAXx2,564.1999999284744,821585.6000000238,821641.8000000715,prp,,False,600.0,False,False,620.3999999761581,T1→T2,821021.4000000954,109.0,426.10000002384186,other
blue,E,4,True,B,110,B,True,E,,823920.1000000238,ORvIk1xRWIQmKuLVe6GXNouvAXx2,534.0999999046326,823618.0,823148.8000000715,prp,,False,50.0,False,False,64.89999997615814,T1→T2,823083.9000000954,110.0,771.2999999523163,short
red,E,8,True,R,112,R,True,E,,830074.3000000715,ORvIk1xRWIQmKuLVe6GXNouvAXx2,767.2999999523163,828862.5,829311.0,prp,,False,1200.0,False,False,1215.7999999523165,T1→T2,828095.2000000477,112.0,763.3000000715256,long
blue,O,5,True,B,113,B,True,O,,833025.2000000477,ORvIk1xRWIQmKuLVe6GXNouvAXx2,1417.899999976158,832516.3000000715,831166.0,prp,,False,50.0,False,False,67.59999990463257,T1→T2,831098.4000000954,113.0,1859.200000047684,short
red,E,2,True,R,114,R,True,E,,835920.6000000238,ORvIk1xRWIQmKuLVe6GXNouvAXx2,1239.0,835294.5,834133.3000000715,prp,,False,50.0,False,False,77.80000007152557,T1→T2,834055.5,114.0,1787.2999999523165,short
red,O,1,True,R,115,R,True,O,,837882.0,ORvIk1xRWIQmKuLVe6GXNouvAXx2,617.6000000238419,837567.4000000954,837112.3000000715,prp,,False,150.0,False,False,162.5,T1→T2,836949.8000000715,115.0,769.6999999284744,short
red,E,2,True,R,116,R,True,E,,840041.7000000477,ORvIk1xRWIQmKuLVe6GXNouvAXx2,877.2000000476837,839791.2000000477,838983.9000000954,prp,,False,50.0,False,False,69.90000009536743,T1→T2,838914.0,116.0,1057.7999999523165,short
red,O,9,True,R,118,R,True,O,,845031.9000000954,ORvIk1xRWIQmKuLVe6GXNouvAXx2,702.0,844723.5,844185.0,prp,,False,150.0,False,False,163.5,T1→T2,844021.5,118.0,846.9000000953674,short
blue,E,6,True,B,119,B,True,E,,848952.5,ORvIk1xRWIQmKuLVe6GXNouvAXx2,2249.5,848309.0,846133.9000000954,prp,,False,50.0,False,False,74.40000009536743,T1→T2,846059.5,119.0,2818.599999904633,short
blue,O,1,True,B,0,B,True,O,,1316761.2999999989,80UJMJbCOMgs6YVpsMgXfYTzw6o2,1554.10000000149,1316469.9000000004,1315083.4000000004,prp,,False,150.0,False,False,167.60000000149012,T1→T2,1314915.7999999989,0.0,1677.89999999851,short
red,E,2,True,R,1,R,True,E,,1319463.0,80UJMJbCOMgs6YVpsMgXfYTzw6o2,1307.300000000745,1319095.4000000004,1318407.0,prp,,False,600.0,False,False,618.9000000003725,T1→T2,1317788.0999999996,1.0,1056.0,other
blue,O,9,True,B,2,B,True,O,,1321975.5999999996,80UJMJbCOMgs6YVpsMgXfYTzw6o2,1237.4000000003723,1321722.1999999993,1320797.7999999989,prp,,False,300.0,False,False,313.0,T1→T2,1320484.7999999989,2.0,1177.800000000745,other
blue,E,2,True,B,3,B,True,E,,1324766.5999999996,80UJMJbCOMgs6YVpsMgXfYTzw6o2,1293.5999999996277,1324302.0,1323625.1999999993,prp,,False,600.0,False,False,616.7999999988824,T1→T2,1323008.4000000004,3.0,1141.4000000003723,other
blue,E,6,True,B,4,B,True,E,,1327293.2999999989,80UJMJbCOMgs6YVpsMgXfYTzw6o2,1229.5,1327021.0999999996,1325962.0,prp,,False,150.0,False,False,170.40000000037253,T1→T2,1325791.5999999996,4.0,1331.2999999988824,short
red,O,9,True,R,5,R,True,O,,1329409.7999999989,80UJMJbCOMgs6YVpsMgXfYTzw6o2,866.7999999988824,1329182.6999999993,1328492.7999999989,prp,,False,150.0,False,False,176.89999999850988,T1→T2,1328315.9000000004,5.0,917.0,short
blue,O,7,True,B,6,B,True,O,,1331808.2999999989,80UJMJbCOMgs6YVpsMgXfYTzw6o2,1178.2000000011176,1331604.5,1330608.1999999993,prp,,False,150.0,False,False,181.90000000037253,T1→T2,1330426.2999999989,6.0,1200.0999999996277,short
blue,O,5,True,B,8,B,True,O,,1337177.0999999996,80UJMJbCOMgs6YVpsMgXfYTzw6o2,1404.4000000003723,1337016.0999999996,1335924.4000000004,prp,,False,300.0,False,False,312.7000000011176,T1→T2,1335611.6999999993,8.0,1252.699999999255,other
red,O,3,True,R,9,R,True,O,,1340007.4000000004,80UJMJbCOMgs6YVpsMgXfYTzw6o2,1663.5999999996277,1339858.6999999993,1338255.2999999989,prp,,False,50.0,False,False,60.19999999925494,T1→T2,1338195.0999999996,9.0,1752.10000000149,short
red,O,9,True,R,10,R,True,O,,1342471.9000000004,80UJMJbCOMgs6YVpsMgXfYTzw6o2,1243.4000000003723,1342271.6999999993,1341104.5,prp,,False,50.0,False,False,76.20000000111759,T1→T2,1341028.2999999989,10.0,1367.4000000003723,short
red,E,2,True,R,11,R,True,E,,1344661.0,80UJMJbCOMgs6YVpsMgXfYTzw6o2,908.3000000007452,1344402.0999999996,1343672.1999999993,prp,,False,150.0,False,False,178.40000000037253,T1→T2,1343493.7999999989,11.0,988.8000000007452,short
blue,O,9,True,B,12,B,True,O,,1346942.1999999993,80UJMJbCOMgs6YVpsMgXfYTzw6o2,815.5999999996275,1346501.5999999996,1346309.0999999996,prp,,False,600.0,False,False,623.0999999996275,T1→T2,1345686.0,12.0,633.0999999996275,other
red,E,8,True,R,13,R,True,E,,1349372.7999999989,80UJMJbCOMgs6YVpsMgXfYTzw6o2,788.5999999996275,1348757.1999999993,1348593.0,prp,,False,600.0,False,False,624.4000000003725,T1→T2,1347968.5999999996,13.0,779.7999999988824,other
blue,O,7,True,B,14,B,True,O,,1352054.5,80UJMJbCOMgs6YVpsMgXfYTzw6o2,1274.7000000011176,1351665.4000000004,1350451.6999999993,prp,,False,50.0,False,False,61.0,T1→T2,1350390.6999999993,14.0,1602.800000000745,short
blue,O,7,True,B,15,B,True,O,,1354180.9000000004,80UJMJbCOMgs6YVpsMgXfYTzw6o2,866.8000000007451,1353948.0,1353152.1999999993,prp,,False,50.0,False,False,71.0,T1→T2,1353081.1999999993,15.0,1028.7000000011176,short
red,E,8,True,R,16,R,True,E,,1356472.5999999996,80UJMJbCOMgs6YVpsMgXfYTzw6o2,751.2000000011176,1355951.5,1355819.1999999993,prp,,False,600.0,False,False,618.9000000003725,T1→T2,1355200.2999999989,16.0,653.4000000003725,other
red,E,4,True,R,17,R,True,E,,1358586.1999999993,80UJMJbCOMgs6YVpsMgXfYTzw6o2,812.5999999996275,1358306.5,1357566.0,prp,,False,50.0,False,False,72.09999999962747,T1→T2,1357493.9000000004,17.0,1020.1999999992548,short
red,O,1,True,R,18,R,True,O,,1361524.4000000004,80UJMJbCOMgs6YVpsMgXfYTzw6o2,757.0999999996275,1360371.0,1360837.5999999996,prp,,False,1200.0,False,False,1223.699999999255,T1→T2,1359613.9000000004,18.0,686.8000000007451,long
blue,O,1,True,B,19,B,True,O,,1363765.1999999993,80UJMJbCOMgs6YVpsMgXfYTzw6o2,929.8000000007452,1363480.4000000004,1363164.0999999996,prp,,False,600.0,False,False,613.5,T1→T2,1362550.5999999996,19.0,601.0999999996275,other
red,O,1,True,R,20,R,True,O,,1366100.5,80UJMJbCOMgs6YVpsMgXfYTzw6o2,973.0999999996276,1365770.0,1365117.0999999996,prp,,False,300.0,False,False,320.19999999925494,T1→T2,1364796.9000000004,20.0,983.4000000003724,other
blue,O,3,True,B,21,B,True,O,,1368642.5999999996,80UJMJbCOMgs6YVpsMgXfYTzw6o2,1291.7999999988824,1368415.1999999993,1367197.4000000004,prp,,False,50.0,False,False,74.0,T1→T2,1367123.4000000004,21.0,1445.199999999255,short
red,O,7,True,R,22,R,True,O,,1370754.0,80UJMJbCOMgs6YVpsMgXfYTzw6o2,912.5,1370580.0,1369827.9000000004,prp,,False,150.0,False,False,160.40000000037253,T1→T2,1369667.5,22.0,926.0999999996276,short
blue,E,2,True,B,23,B,True,E,,1373628.6999999993,80UJMJbCOMgs6YVpsMgXfYTzw6o2,681.1000000014901,1372448.9000000004,1372979.0999999996,prp,,False,1200.0,False,False,1211.300000000745,T1→T2,1371767.7999999989,23.0,649.5999999996275,long
blue,E,8,True,B,24,B,True,E,,1376142.2999999989,80UJMJbCOMgs6YVpsMgXfYTzw6o2,1227.0,1375881.0,1375264.1999999993,prp,,False,600.0,False,False,610.1999999992549,T1→T2,1374654.0,24.0,878.0999999996275,other
red,O,7,True,R,25,R,True,O,,1378976.4000000004,80UJMJbCOMgs6YVpsMgXfYTzw6o2,694.2000000011176,1377860.0,1378380.0999999996,prp,,False,1200.0,False,False,1214.300000000745,T1→T2,1377165.7999999989,25.0,596.3000000007451,long
red,E,4,True,R,26,R,True,E,,1381350.2999999989,80UJMJbCOMgs6YVpsMgXfYTzw6o2,685.0,1380692.1999999993,1380620.5,prp,,False,600.0,False,False,613.3000000007451,T1→T2,1380007.1999999993,26.0,729.7999999988824,other
red,E,4,True,R,27,R,True,E,,1384121.6999999993,80UJMJbCOMgs6YVpsMgXfYTzw6o2,833.3000000007451,1383213.5,1383604.9000000004,prp,,False,1200.0,False,False,1224.7000000011176,T1→T2,1382380.1999999993,27.0,516.7999999988824,long
red,E,2,True,R,28,R,True,E,,1386146.4000000004,80UJMJbCOMgs6YVpsMgXfYTzw6o2,523.9000000003725,1385674.0999999996,1385475.1999999993,prp,,False,300.0,False,False,325.0,T1→T2,1385150.1999999993,28.0,671.2000000011176,other
blue,O,1,True,B,29,B,True,O,,1388243.6999999993,80UJMJbCOMgs6YVpsMgXfYTzw6o2,694.5,1387866.2999999989,1387490.0,prp,,False,300.0,False,False,318.2000000011176,T1→T2,1387171.7999999989,29.0,753.6999999992549,other
red,O,7,True,R,30,R,True,O,,1400669.0,80UJMJbCOMgs6YVpsMgXfYTzw6o2,1137.5999999996277,1400409.0,1399583.7999999989,prp,,False,300.0,False,False,312.3999999985099,T1→T2,1399271.4000000004,30.0,1085.2000000011176,other
blue,E,2,True,B,31,B,True,E,,1402860.6999999993,80UJMJbCOMgs6YVpsMgXfYTzw6o2,514.3000000007451,1402204.5999999996,1402303.7999999989,prp,,False,600.0,False,False,613.5,T1→T2,1401690.2999999989,31.0,556.9000000003725,other
red,E,2,True,R,32,R,True,E,,1405530.6999999993,80UJMJbCOMgs6YVpsMgXfYTzw6o2,483.80000000074506,1404364.0999999996,1405096.2999999989,prp,,False,1200.0,False,False,1216.0,T1→T2,1403880.2999999989,32.0,434.4000000003725,long
blue,E,2,True,B,33,B,True,E,,1407551.4000000004,80UJMJbCOMgs6YVpsMgXfYTzw6o2,665.9000000003725,1407220.0,1406867.0,prp,,False,300.0,False,False,312.90000000037253,T1→T2,1406554.0999999996,33.0,684.4000000003725,other
red,E,2,True,R,34,R,True,E,,1409715.5999999996,80UJMJbCOMgs6YVpsMgXfYTzw6o2,445.0,1409020.6999999993,1409200.5999999996,prp,,False,600.0,False,False,624.9000000003725,T1→T2,1408575.6999999993,34.0,515.0,other
red,O,9,True,R,35,R,True,O,,1411754.5999999996,80UJMJbCOMgs6YVpsMgXfYTzw6o2,486.9000000003725,1411237.5999999996,1411063.0999999996,prp,,False,300.0,False,False,312.40000000037253,T1→T2,1410750.6999999993,35.0,691.5,other
red,O,5,True,R,36,R,True,O,,1413944.1999999993,80UJMJbCOMgs6YVpsMgXfYTzw6o2,701.5999999996275,1413481.7999999989,1413404.0,prp,,False,600.0,False,False,623.8000000007451,T1→T2,1412780.1999999993,36.0,540.1999999992549,other
blue,E,8,True,B,37,B,True,E,,1415907.5,80UJMJbCOMgs6YVpsMgXfYTzw6o2,665.5,1415641.5,1415047.9000000004,prp,,False,50.0,False,False,71.90000000037253,T1→T2,1414976.0,37.0,859.5999999996275,short
red,O,7,True,R,38,R,True,O,,1418503.0999999996,80UJMJbCOMgs6YVpsMgXfYTzw6o2,815.8999999985099,1417741.7999999989,1418137.0,prp,,False,1200.0,False,False,1211.0999999996277,T1→T2,1416925.9000000004,38.0,366.0999999996274,long
red,E,8,True,R,39,R,True,E,,1420755.0999999996,80UJMJbCOMgs6YVpsMgXfYTzw6o2,878.9000000003725,1420402.5,1419696.0999999996,prp,,False,150.0,False,False,172.5,T1→T2,1419523.5999999996,39.0,1059.0,short
blue,O,1,True,B,40,B,True,O,,1423081.0,80UJMJbCOMgs6YVpsMgXfYTzw6o2,833.0,1422616.0999999996,1422095.5999999996,prp,,False,300.0,False,False,312.5,T1→T2,1421783.0999999996,40.0,985.4000000003724,other
blue,E,8,True,B,41,B,True,E,,1425378.4000000004,80UJMJbCOMgs6YVpsMgXfYTzw6o2,792.6999999992549,1424901.7999999989,1424722.4000000004,prp,,False,600.0,False,False,613.3000000007451,T1→T2,1424109.0999999996,41.0,656.0,other
blue,O,7,True,B,42,B,True,O,,1427669.5999999996,80UJMJbCOMgs6YVpsMgXfYTzw6o2,784.5,1427192.7999999989,1427021.5999999996,prp,,False,600.0,False,False,613.3000000007451,T1→T2,1426408.2999999989,42.0,648.0,other
red,O,5,True,R,43,R,True,O,,1429972.1999999993,80UJMJbCOMgs6YVpsMgXfYTzw6o2,710.2999999988824,1429393.1999999993,1428757.9000000004,prp,,False,50.0,False,False,75.0,T1→T2,1428682.9000000004,43.0,1214.2999999988824,short
red,E,8,True,R,44,R,True,E,,1432208.9000000004,80UJMJbCOMgs6YVpsMgXfYTzw6o2,947.0,1431945.0,1431073.6999999993,prp,,False,50.0,False,False,75.69999999925494,T1→T2,1430998.0,44.0,1135.2000000011176,short
red,E,4,True,R,45,R,True,E,,1434197.1999999993,80UJMJbCOMgs6YVpsMgXfYTzw6o2,738.6999999992549,1433979.6999999993,1433561.9000000004,prp,,False,300.0,False,False,320.90000000037253,T1→T2,1433241.0,45.0,635.2999999988824,other
blue,O,9,True,B,46,B,True,O,,1436435.2999999989,80UJMJbCOMgs6YVpsMgXfYTzw6o2,535.0,1435756.1999999993,1435391.1999999993,prp,,False,150.0,False,False,170.0,T1→T2,1435221.1999999993,46.0,1044.0999999996277,short
blue,E,8,True,B,47,B,True,E,,1438783.7999999989,80UJMJbCOMgs6YVpsMgXfYTzw6o2,622.9000000003725,1438087.1999999993,1437790.4000000004,prp,,False,300.0,False,False,326.1000000014901,T1→T2,1437464.2999999989,47.0,993.39999999851,other
blue,E,4,True,B,48,B,True,E,,1440912.2999999989,80UJMJbCOMgs6YVpsMgXfYTzw6o2,890.7000000011176,1440711.0,1439989.7999999989,prp,,False,150.0,False,False,169.5,T1→T2,1439820.2999999989,48.0,922.5,short
red,E,8,True,R,49,R,True,E,,1443074.5,80UJMJbCOMgs6YVpsMgXfYTzw6o2,697.3000000007451,1442636.5999999996,1442255.6999999993,prp,,False,300.0,False,False,316.40000000037253,T1→T2,1441939.2999999989,49.0,818.8000000007451,other
blue,E,8,True,B,50,B,True,E,,1445875.0,80UJMJbCOMgs6YVpsMgXfYTzw6o2,598.9000000003725,1444708.0,1445317.5999999996,prp,,False,1200.0,False,False,1208.5,T1→T2,1444109.0999999996,50.0,557.4000000003725,long
red,O,9,True,R,52,R,True,O,,1450797.2999999989,80UJMJbCOMgs6YVpsMgXfYTzw6o2,898.7999999988824,1450559.2999999989,1449837.0,prp,,False,150.0,False,False,176.5,T1→T2,1449660.5,52.0,960.2999999988824,short
blue,O,9,True,B,53,B,True,O,,1453491.0,80UJMJbCOMgs6YVpsMgXfYTzw6o2,815.0999999996275,1452631.7999999989,1453027.2999999989,prp,,False,1200.0,False,False,1210.5999999996277,T1→T2,1451816.6999999993,53.0,463.7000000011176,long
blue,O,9,True,B,54,B,True,O,,1456215.0999999996,80UJMJbCOMgs6YVpsMgXfYTzw6o2,559.0,1455086.6999999993,1455743.9000000004,prp,,False,1200.0,False,False,1216.2000000011176,T1→T2,1454527.6999999993,54.0,471.1999999992549,long
red,E,8,True,R,55,R,True,E,,1458261.6999999993,80UJMJbCOMgs6YVpsMgXfYTzw6o2,698.0999999996275,1457952.0,1457430.9000000004,prp,,False,150.0,False,False,177.0,T1→T2,1457253.9000000004,55.0,830.7999999988824,short
blue,E,6,True,B,56,B,True,E,,1460290.7999999989,80UJMJbCOMgs6YVpsMgXfYTzw6o2,822.3999999985099,1460110.7999999989,1459447.0999999996,prp,,False,150.0,False,False,158.69999999925494,T1→T2,1459288.4000000004,56.0,843.6999999992549,short
red,E,2,True,R,57,R,True,E,,1462251.0999999996,80UJMJbCOMgs6YVpsMgXfYTzw6o2,653.1999999992549,1461968.2999999989,1461628.9000000004,prp,,False,300.0,False,False,313.80000000074506,T1→T2,1461315.0999999996,57.0,622.1999999992549,other
red,E,4,True,R,58,R,True,E,,1464096.9000000004,80UJMJbCOMgs6YVpsMgXfYTzw6o2,649.2999999988824,1463920.2999999989,1463346.0,prp,,False,50.0,False,False,75.0,T1→T2,1463271.0,58.0,750.9000000003725,short
red,O,9,True,R,59,R,True,O,,1465974.9000000004,80UJMJbCOMgs6YVpsMgXfYTzw6o2,492.6999999992549,1465610.7999999989,1465295.1999999993,prp,,False,150.0,False,False,177.09999999962747,T1→T2,1465118.0999999996,59.0,679.7000000011176,short
red,O,9,True,R,60,R,True,O,,1478267.4000000004,80UJMJbCOMgs6YVpsMgXfYTzw6o2,762.8999999985099,1477779.2999999989,1477633.9000000004,prp,,False,600.0,False,False,617.5,T1→T2,1477016.4000000004,60.0,633.5,other
red,E,2,True,R,61,R,True,E,,1480973.0,80UJMJbCOMgs6YVpsMgXfYTzw6o2,782.3000000007451,1480062.4000000004,1480497.9000000004,prp,,False,1200.0,False,False,1217.800000000745,T1→T2,1479280.0999999996,61.0,475.0999999996274,long
blue,O,7,True,B,62,B,True,O,,1483642.9000000004,80UJMJbCOMgs6YVpsMgXfYTzw6o2,552.6000000014901,1482550.9000000004,1483208.4000000004,prp,,False,1200.0,False,False,1210.10000000149,T1→T2,1481998.2999999989,62.0,434.5,long
blue,E,8,True,B,63,B,True,E,,1485848.5,80UJMJbCOMgs6YVpsMgXfYTzw6o2,566.7000000011176,1485236.0,1485289.0999999996,prp,,False,600.0,False,False,619.8000000007451,T1→T2,1484669.2999999989,63.0,559.4000000003725,other
blue,E,4,True,B,65,B,True,E,,1490320.0999999996,80UJMJbCOMgs6YVpsMgXfYTzw6o2,1204.5,1490101.2999999989,1489070.9000000004,prp,,False,150.0,False,False,174.10000000149012,T1→T2,1488896.7999999989,65.0,1249.199999999255,short
blue,O,1,True,B,66,B,True,O,,1492641.1999999993,80UJMJbCOMgs6YVpsMgXfYTzw6o2,1144.5999999996277,1492490.1999999993,1491520.0999999996,prp,,False,150.0,False,False,174.5,T1→T2,1491345.5999999996,66.0,1121.0999999996277,short
red,O,3,True,R,67,R,True,O,,1494651.4000000004,80UJMJbCOMgs6YVpsMgXfYTzw6o2,860.5,1494532.2999999989,1493851.6999999993,prp,,False,150.0,False,False,179.90000000037253,T1→T2,1493671.7999999989,67.0,799.7000000011176,short
red,O,3,True,R,68,R,True,O,,1496677.4000000004,80UJMJbCOMgs6YVpsMgXfYTzw6o2,861.0999999996275,1496536.5999999996,1495988.2999999989,prp,,False,300.0,False,False,312.7999999988824,T1→T2,1495675.5,68.0,689.1000000014901,other
red,E,4,True,R,69,R,True,E,,1499403.9000000004,80UJMJbCOMgs6YVpsMgXfYTzw6o2,661.4000000003725,1498365.9000000004,1498916.4000000004,prp,,False,1200.0,False,False,1211.9000000003723,T1→T2,1497704.5,69.0,487.5,long
blue,E,4,True,B,70,B,True,E,,1501586.2999999989,80UJMJbCOMgs6YVpsMgXfYTzw6o2,559.5999999996275,1500985.0999999996,1501049.7999999989,prp,,False,600.0,False,False,624.2999999988824,T1→T2,1500425.5,70.0,536.5,other
blue,E,8,True,B,71,B,True,E,,1503903.0999999996,80UJMJbCOMgs6YVpsMgXfYTzw6o2,1152.0999999996277,1503756.0999999996,1502682.7999999989,prp,,False,50.0,False,False,78.79999999888241,T1→T2,1502604.0,71.0,1220.300000000745,short
blue,E,6,True,B,72,B,True,E,,1506037.0,80UJMJbCOMgs6YVpsMgXfYTzw6o2,735.5,1505671.9000000004,1505253.0,prp,,False,300.0,False,False,316.59999999962747,T1→T2,1504936.4000000004,72.0,784.0,other
blue,E,2,True,B,73,B,True,E,,1507772.0999999996,80UJMJbCOMgs6YVpsMgXfYTzw6o2,547.6000000014901,1507607.4000000004,1507135.6999999993,prp,,False,50.0,False,False,75.90000000037253,T1→T2,1507059.7999999989,73.0,636.4000000003725,short
red,E,6,True,R,74,R,True,E,,1510012.1999999993,80UJMJbCOMgs6YVpsMgXfYTzw6o2,1084.5,1509872.7999999989,1508864.6999999993,prp,,False,50.0,False,False,76.40000000037253,T1→T2,1508788.2999999989,74.0,1147.5,short
red,O,9,True,R,75,R,True,O,,1512081.0,80UJMJbCOMgs6YVpsMgXfYTzw6o2,894.6000000014901,1511933.4000000004,1511098.2999999989,prp,,False,50.0,False,False,59.5,T1→T2,1511038.7999999989,75.0,982.7000000011176,short
blue,O,5,True,B,76,B,True,O,,1514084.0999999996,80UJMJbCOMgs6YVpsMgXfYTzw6o2,838.3999999985099,1513940.2999999989,1513179.4000000004,prp,,False,50.0,False,False,77.5,T1→T2,1513101.9000000004,76.0,904.6999999992548,short
blue,E,6,True,B,77,B,True,E,,1516297.4000000004,80UJMJbCOMgs6YVpsMgXfYTzw6o2,871.2000000011176,1515997.9000000004,1515446.7999999989,prp,,False,300.0,False,False,320.09999999962747,T1→T2,1515126.6999999993,77.0,850.6000000014901,other
blue,E,2,True,B,78,B,True,E,,1518329.0,80UJMJbCOMgs6YVpsMgXfYTzw6o2,849.3999999985099,1518167.7999999989,1517395.0,prp,,False,50.0,False,False,76.59999999962747,T1→T2,1517318.4000000004,78.0,934.0,short
blue,E,6,True,B,80,B,True,E,,1524177.1999999993,80UJMJbCOMgs6YVpsMgXfYTzw6o2,1308.800000000745,1523350.4000000004,1523257.1999999993,prp,,False,1200.0,False,False,1215.5999999996277,T1→T2,1522041.5999999996,80.0,920.0,long
blue,O,9,True,B,81,B,True,O,,1526952.6999999993,80UJMJbCOMgs6YVpsMgXfYTzw6o2,629.3999999985099,1525831.7999999989,1526421.9000000004,prp,,False,1200.0,False,False,1219.5,T1→T2,1525202.4000000004,81.0,530.7999999988824,long
blue,O,7,True,B,82,B,True,O,,1529062.5999999996,80UJMJbCOMgs6YVpsMgXfYTzw6o2,715.8000000007451,1528692.0,1528590.7999999989,prp,,False,600.0,False,False,614.5999999996275,T1→T2,1527976.1999999993,82.0,471.80000000074506,other
blue,O,7,True,B,83,B,True,O,,1531205.0,80UJMJbCOMgs6YVpsMgXfYTzw6o2,450.30000000074506,1530548.5,1530727.5999999996,prp,,False,600.0,False,False,629.4000000003725,T1→T2,1530098.1999999993,83.0,477.4000000003725,other
red,E,2,True,R,84,R,True,E,,1533159.6999999993,80UJMJbCOMgs6YVpsMgXfYTzw6o2,687.0,1532923.5999999996,1532408.0,prp,,False,150.0,False,False,171.40000000037253,T1→T2,1532236.5999999996,84.0,751.6999999992549,short
red,O,5,True,R,85,R,True,O,,1535891.0999999996,80UJMJbCOMgs6YVpsMgXfYTzw6o2,588.5999999996275,1534765.6999999993,1535398.0999999996,prp,,False,1200.0,False,False,1221.0,T1→T2,1534177.0999999996,85.0,493.0,long
blue,E,4,True,B,86,B,True,E,,1537930.0,80UJMJbCOMgs6YVpsMgXfYTzw6o2,765.1999999992549,1537678.2999999989,1537088.0,prp,,False,150.0,False,False,174.90000000037253,T1→T2,1536913.0999999996,86.0,842.0,short
red,E,6,True,R,87,R,True,E,,1540097.1999999993,80UJMJbCOMgs6YVpsMgXfYTzw6o2,697.2000000011176,1539657.9000000004,1539570.4000000004,prp,,False,600.0,False,False,609.7000000011176,T1→T2,1538960.6999999993,87.0,526.7999999988824,other
red,O,7,True,R,88,R,True,O,,1542037.9000000004,80UJMJbCOMgs6YVpsMgXfYTzw6o2,563.5999999996275,1541682.5,1541302.6999999993,prp,,False,150.0,False,False,183.7999999988824,T1→T2,1541118.9000000004,88.0,735.2000000011176,short
red,E,8,True,R,89,R,True,E,,1544218.0,80UJMJbCOMgs6YVpsMgXfYTzw6o2,746.9000000003725,1543805.0,1543218.2999999989,prp,,False,150.0,False,False,160.19999999925494,T1→T2,1543058.0999999996,89.0,999.7000000011176,short
red,O,9,True,R,90,R,True,O,,1556751.5999999996,80UJMJbCOMgs6YVpsMgXfYTzw6o2,1111.2000000011176,1556378.4000000004,1555877.0999999996,prp,,False,600.0,False,False,609.9000000003725,T1→T2,1555267.1999999993,90.0,874.5,other
red,O,3,True,R,91,R,True,O,,1558731.7999999989,80UJMJbCOMgs6YVpsMgXfYTzw6o2,701.0,1558481.0999999996,1558100.4000000004,prp,,False,300.0,False,False,320.30000000074506,T1→T2,1557780.0999999996,91.0,631.3999999985099,other
blue,E,6,True,B,92,B,True,E,,1560615.5,80UJMJbCOMgs6YVpsMgXfYTzw6o2,597.0999999996275,1560353.0999999996,1560081.9000000004,prp,,False,300.0,False,False,325.90000000037253,T1→T2,1559756.0,92.0,533.5999999996275,other
red,E,2,True,R,93,R,True,E,,1562561.5999999996,80UJMJbCOMgs6YVpsMgXfYTzw6o2,660.0,1562296.9000000004,1561950.0,prp,,False,300.0,False,False,313.09999999962747,T1→T2,1561636.9000000004,93.0,611.5999999996275,other
red,O,1,True,R,94,R,True,O,,1564707.5999999996,80UJMJbCOMgs6YVpsMgXfYTzw6o2,597.4000000003725,1564179.5999999996,1564214.5999999996,prp,,False,600.0,False,False,632.4000000003725,T1→T2,1563582.1999999993,94.0,493.0,other
red,O,9,True,R,95,R,True,O,,1567307.7999999989,80UJMJbCOMgs6YVpsMgXfYTzw6o2,596.9000000003725,1566334.5999999996,1566957.0,prp,,False,1200.0,False,False,1219.300000000745,T1→T2,1565737.6999999993,95.0,350.7999999988824,long
blue,O,9,True,B,96,B,True,O,,1569071.4000000004,80UJMJbCOMgs6YVpsMgXfYTzw6o2,367.5,1568714.0999999996,1568509.7999999989,prp,,False,150.0,False,False,163.19999999925494,T1→T2,1568346.5999999996,96.0,561.6000000014901,short
blue,E,6,True,B,97,B,True,E,,1571790.4000000004,80UJMJbCOMgs6YVpsMgXfYTzw6o2,585.5,1570676.5999999996,1571303.6999999993,prp,,False,1200.0,False,False,1212.5999999996277,T1→T2,1570091.0999999996,97.0,486.7000000011176,long
red,E,4,True,R,98,R,True,E,,1573856.2999999989,80UJMJbCOMgs6YVpsMgXfYTzw6o2,695.0,1573517.5999999996,1572993.9000000004,prp,,False,150.0,False,False,171.30000000074506,T1→T2,1572822.5999999996,98.0,862.3999999985099,short
red,O,3,True,R,99,R,True,O,,1576006.5,80UJMJbCOMgs6YVpsMgXfYTzw6o2,631.8000000007451,1575513.5999999996,1575501.5,prp,,False,600.0,False,False,619.7000000011176,T1→T2,1574881.7999999989,99.0,505.0,other
blue,E,8,True,B,100,B,True,E,,1577937.9000000004,80UJMJbCOMgs6YVpsMgXfYTzw6o2,632.0999999996275,1577655.7999999989,1577208.0,prp,,False,150.0,False,False,184.30000000074503,T1→T2,1577023.6999999993,100.0,729.9000000003725,short
blue,O,3,True,B,101,B,True,O,,1579867.6999999993,80UJMJbCOMgs6YVpsMgXfYTzw6o2,665.2000000011176,1579626.4000000004,1579023.9000000004,prp,,False,50.0,False,False,62.70000000111759,T1→T2,1578961.1999999993,101.0,843.7999999988824,short
red,E,6,True,R,102,R,True,E,,1581754.0999999996,80UJMJbCOMgs6YVpsMgXfYTzw6o2,602.7999999988824,1581494.6999999993,1581209.4000000004,prp,,False,300.0,False,False,317.5,T1→T2,1580891.9000000004,102.0,544.6999999992549,other
red,O,3,True,R,103,R,True,O,,1584447.0999999996,80UJMJbCOMgs6YVpsMgXfYTzw6o2,581.5999999996275,1583352.7999999989,1583992.6999999993,prp,,False,1200.0,False,False,1221.5,T1→T2,1582771.1999999993,103.0,454.4000000003725,long
blue,O,3,True,B,105,B,True,O,,1589505.0999999996,80UJMJbCOMgs6YVpsMgXfYTzw6o2,1394.5999999996277,1589158.2999999989,1588971.5,prp,,False,1200.0,False,False,1207.800000000745,T1→T2,1587763.6999999993,105.0,533.5999999996275,long
blue,E,2,True,B,106,B,True,E,,1591632.4000000004,80UJMJbCOMgs6YVpsMgXfYTzw6o2,539.5,1591081.0999999996,1590854.7999999989,prp,,False,300.0,False,False,313.19999999925494,T1→T2,1590541.5999999996,106.0,777.6000000014901,other
blue,O,5,True,B,107,B,True,O,,1593756.4000000004,80UJMJbCOMgs6YVpsMgXfYTzw6o2,723.8000000007451,1593396.5,1592989.1999999993,prp,,False,300.0,False,False,316.5,T1→T2,1592672.6999999993,107.0,767.2000000011176,other
blue,O,9,True,B,108,B,True,O,,1595940.6999999993,80UJMJbCOMgs6YVpsMgXfYTzw6o2,938.2999999988824,1595718.6999999993,1595103.0999999996,prp,,False,300.0,False,False,322.69999999925494,T1→T2,1594780.4000000004,108.0,837.5999999996275,other
blue,E,2,True,B,109,B,True,E,,1598259.7999999989,80UJMJbCOMgs6YVpsMgXfYTzw6o2,1056.2999999988824,1598015.7999999989,1597019.1999999993,prp,,False,50.0,False,False,59.69999999925494,T1→T2,1596959.5,109.0,1240.5999999996277,short
blue,E,6,True,B,110,B,True,E,,1600601.4000000004,80UJMJbCOMgs6YVpsMgXfYTzw6o2,1061.2000000011176,1600350.9000000004,1599364.9000000004,prp,,False,50.0,False,False,75.20000000111759,T1→T2,1599289.6999999993,110.0,1236.5,short
red,E,4,True,R,111,R,True,E,,1602618.5999999996,80UJMJbCOMgs6YVpsMgXfYTzw6o2,750.6999999992549,1602376.5999999996,1601699.2999999989,prp,,False,50.0,False,False,73.39999999850988,T1→T2,1601625.9000000004,111.0,919.3000000007452,short
red,E,8,True,R,112,R,True,E,,1605571.0999999996,80UJMJbCOMgs6YVpsMgXfYTzw6o2,806.0999999996275,1604452.0,1604859.1999999993,prp,,False,1200.0,False,False,1213.2999999988824,T1→T2,1603645.9000000004,112.0,711.9000000003725,long
blue,E,8,True,B,113,B,True,E,,1608266.1999999993,80UJMJbCOMgs6YVpsMgXfYTzw6o2,574.8000000007451,1607166.9000000004,1607816.0,prp,,False,1200.0,False,False,1223.9000000003723,T1→T2,1606592.0999999996,113.0,450.1999999992549,long
red,O,9,True,R,114,R,True,O,,1610468.9000000004,80UJMJbCOMgs6YVpsMgXfYTzw6o2,940.0999999996276,1610240.5999999996,1609379.4000000004,prp,,False,50.0,False,False,78.90000000037253,T1→T2,1609300.5,114.0,1089.5,short
red,E,4,True,R,115,R,True,E,,1612468.4000000004,80UJMJbCOMgs6YVpsMgXfYTzw6o2,691.7999999988824,1612193.6999999993,1611578.7999999989,prp,,False,50.0,False,False,76.89999999850988,T1→T2,1611501.9000000004,115.0,889.6000000014901,short
red,E,8,True,R,116,R,True,E,,1615130.9000000004,80UJMJbCOMgs6YVpsMgXfYTzw6o2,639.2000000011176,1614133.4000000004,1614711.1999999993,prp,,False,1200.0,False,False,1217.0,T1→T2,1613494.1999999993,116.0,419.7000000011176,long
red,O,7,True,R,117,R,True,O,,1617013.4000000004,80UJMJbCOMgs6YVpsMgXfYTzw6o2,562.1999999992549,1616741.5999999996,1616261.0,prp,,False,50.0,False,False,81.59999999962747,T1→T2,1616179.4000000004,117.0,752.4000000003725,short
red,O,5,True,R,118,R,True,O,,1619705.0999999996,80UJMJbCOMgs6YVpsMgXfYTzw6o2,1360.199999999255,1619388.1999999993,1618346.6999999993,prp,,False,300.0,False,False,318.69999999925494,T1→T2,1618028.0,118.0,1358.4000000003723,other
blue,O,1,True,B,119,B,True,O,,1621797.5999999996,80UJMJbCOMgs6YVpsMgXfYTzw6o2,897.4000000003725,1621614.0,1620875.5,prp,,False,150.0,False,False,158.90000000037253,T1→T2,1620716.5999999996,119.0,922.0999999996276,short
red,E,2,True,R,0,R,True,E,,935639.8,rUuJv5gl7dWVo7UPQWMx4bohxhK2,1697.8000000000466,934677.9,933589.1,prp,,False,600.0,False,False,609.0,T1→T2,932980.1,0.0,2050.699999999953,other
blue,O,5,True,B,3,B,True,O,,946445.8,rUuJv5gl7dWVo7UPQWMx4bohxhK2,2459.199999999953,947528.4,945143.0,prp,,True,50.0,False,False,73.79999999981374,T2→T1,945069.2,3.0,1302.8000000000466,short
red,E,8,True,R,5,R,True,E,,953711.6,rUuJv5gl7dWVo7UPQWMx4bohxhK2,2817.100000000093,955409.1,952900.8,prp,,True,300.0,False,False,308.80000000004657,T2→T1,952592.0,5.0,810.8000000000466,other
