participant_id,wcst_switch_cost_rt_k1_sd,wcst_switch_cost_error_k1_sd,wcst_switch_cost_rt_early,wcst_switch_cost_rt_late,wcst_switch_cost_rt_early_late_delta,wcst_switch_cost_error_early,wcst_switch_cost_error_late,wcst_switch_cost_error_early_late_delta,wcst_exploration_rt_mean,wcst_exploration_rt_sd,wcst_exploitation_rt_mean,wcst_exploitation_rt_sd,wcst_switch_first_trial_rt,wcst_switch_first_trial_correct,wcst_switch_first_error_latency,wcst_switch_first_error_rt,wcst_switch_signal_rt,wcst_switch_signal_delta,wcst_lucky_streak_len,wcst_exploration_rt_slope,wcst_exploration_error_rate,wcst_confirmation_rt_mean,wcst_confirmation_rt_slope,wcst_confirmation_error_rate,wcst_post_reacq_rt_cv,wcst_exploitation_rt_slope,wcst_exploitation_error_rate,wcst_shift_pe_rt_mean,wcst_shift_pe_count_mean,wcst_shift_pe_rate_mean,wcst_post_shift_pe_rt_mean,wcst_post_shift_pe_slowing,wcst_shift_pe_rt_mean_reacq,wcst_shift_pe_count_mean_reacq,wcst_shift_pe_rate_mean_reacq,wcst_post_shift_pe_rt_mean_reacq,wcst_post_shift_pe_slowing_reacq,wcst_stable_pe_rt_mean,wcst_stable_pe_count_mean,wcst_stable_pe_rate_mean,wcst_shift_error_rt_mean,wcst_post_shift_error_rt_mean,wcst_shift_post_error_slowing,wcst_stable_error_rt_mean,wcst_post_stable_error_rt_mean,wcst_stable_post_error_slowing,wcst_nonshift_error_rt_mean,wcst_shift_error_count_total,wcst_shift_error_rate,wcst_nonshift_error_count_total,wcst_nonshift_error_rate,wcst_pe_context_rt_delta,wcst_pe_context_rate_delta,wcst_pe_context_rt_delta_reacq,wcst_pe_context_rate_delta_reacq,wcst_error_context_post_error_rt_delta,wcst_error_context_pes_delta,wcst_exploration_penalty,wcst_switch_cost_rt_k1_to_colour,wcst_switch_cost_error_k1_to_colour,wcst_switch_cost_rt_k1_to_shape,wcst_switch_cost_error_k1_to_shape,wcst_switch_cost_rt_k1_to_number,wcst_switch_cost_error_k1_to_number,wcst_switch_cost_rt_mean_k1_k5,wcst_switch_cost_error_mean_k1_k5,wcst_switch_cost_rt_slope_k1_k5,wcst_switch_cost_error_slope_k1_k5
06qcrpGKL6Vc3LVplFQC90VAcRm1,395.7199266306281,0.44721359549995804,90.00000001241762,568.933333337307,-478.93333332488936,0.5,1.0,-0.5,1042.629999999702,434.15876907831023,911.9083809499228,226.4331587018536,764.859999999404,0.2,1.2,768.2200000017881,1544.4200000017881,659.000000004967,0.2,1035.4500000029798,0.9333333333333333,1212.580000001192,-457.9600000038746,0.0,0.24755946350397023,-17.809714285837718,0.01333333333333333,891.8249999992549,1.2,0.4333333333333333,1490.9125000033528,599.0875000040978,1065.390000000596,1.6,0.31666666666666665,1664.7700000032783,599.3800000026822,802.6999999880791,0.2,0.013333333333333332,1136.2555555568802,1704.788888891538,568.5333333346579,802.6999999880791,1463.6000000089407,660.9000000208616,1757.4249999932945,9.0,0.36,4.0,0.07017543859649122,-89.12500001117587,-0.42,-262.690000012517,-0.30333333333333334,-241.1888888825972,92.36666668620376,130.72161904977918,-76.96666666865349,1.0,343.2166666736205,1.0,315.71666667610407,0.5,299.42400000413255,0.2,-156.96200000166894,-0.17999999999999997
0ZtXlQtAJkW6jS21vfMOtNL4OnL2,1859.1944652635536,0.5477225575051662,1118.949999999837,2090.8833333333023,-971.9333333334653,0.5,0.0,0.5,1809.483809523841,239.18941931602154,1067.251168831202,337.70228118053274,1606.1200000000185,0.2,1.2,1611.9600000000094,2559.4399999999905,1501.5133333332838,0.2,262.603571428618,0.8761904761904763,1347.9066666666572,-620.0000000000002,0.0,0.3083761759049658,30.401467532478346,0.018181818181818188,1766.9500000000116,0.8,0.36666666666666664,2677.124999999942,910.1749999999303,1677.1000000000154,1.4,0.24333333333333335,2406.5733333333546,729.4733333333396,799.1000000000931,0.2,0.01818181818181818,1585.890000000014,1948.8399999999906,362.94999999997674,799.1000000000931,817.5,18.399999999906868,799.1000000000931,10.0,0.35714285714285715,1.0,0.02040816326530612,-967.8499999999185,-0.34848484848484845,-877.9999999999222,-0.22515151515151516,-1131.3399999999906,-344.5500000000699,742.232640692639,-8.800000000046566,1.0,273.3666666666201,0.0,2936.466666666519,0.5,249.06533333328554,0.24000000000000005,-310.5039999999896,-0.06000000000000002
0d841i8KPjdjwCYfDuUUXj0SEjH2,1207.5331696905578,0.44721359549995804,1598.8499994277954,1299.2333334287005,299.61666599909495,0.5,0.0,0.5,1442.2749999761581,144.00229588748797,1323.9885714667184,338.278445225881,2844.920000076294,0.2,3.0,1221.0600000381469,2837.239999771118,1572.63333307902,2.0,,1.0,2571.7200000127154,-1190.7899998664864,0.0,0.25500637066024334,-21.75357140813547,0.0,796.9333333969116,0.6,0.26666666666666666,3035.633332888285,2238.6999994913735,796.9333333969116,0.6,0.13999999999999999,3035.633332888285,2238.6999994913735,,0.0,0.0,1411.279999923706,2541.899999809265,1130.619999885559,,,,2448.2333335876465,5.0,0.25,3.0,0.0625,,-0.26666666666666666,,-0.13999999999999999,,,118.2864285094397,2521.199999491373,0.0,1369.849999586741,0.5,1528.233333269755,0.0,556.1293332544961,0.04,-335.78799993515014,-0.04
0oa5NYVnIBS9NmrmRAZrahXDctP2,1737.0572735699554,0.5477225575051662,-28.9833333318432,159.61666666219634,-188.59999999403954,1.0,0.0,1.0,1108.9933333317438,563.5527655378252,804.7114285720247,129.82083661520824,737.859999999404,0.2,1.2,726.2400000005961,1709.4599999964237,934.6333333313466,0.2,-19.299999997019842,0.8333333333333334,960.3199999998012,-133.26999999731797,0.0,0.16177894772513216,-18.720000000404408,0.0,747.125,1.0,0.4,1918.0249999947848,1170.8999999947848,721.2,1.2,0.24333333333333335,1754.7199999958277,1033.519999995828,,0.0,0.0,1217.7249999996275,1461.9999999962747,244.27499999664724,,,,1339.7000000029802,8.0,0.32,2.0,0.041666666666666664,,-0.4,,-0.24333333333333335,,,304.28190475971905,3927.8999999960274,1.0,47.78333333134651,0.5,82.84999999900663,0.5,269.9533333343269,0.16,-137.70199999928477,-0.14
146QT9LupyU2BAiTsB3PMIpVXM22,412.1249207821104,0.5477225575051662,349.8166666602095,551.5833333358169,-201.76666667560738,0.5,0.5,0.0,1245.7199999973177,333.9151798371321,1021.0407142860195,228.98045099906048,915.3799999982118,0.4,1.4,1151.6799999982118,1381.2399999976158,456.75999999940393,0.4,320.84999999850993,0.75,1319.4400000005962,-58.079999998212145,0.0,0.22423730844738987,-30.025414586678227,0.016666666666666673,1055.3666666646798,0.6,0.3,1492.0,436.6333333353202,1228.2599999979138,1.2,0.2257142857142857,1407.0799999967217,178.8199999988079,939.5,0.2,0.016666666666666666,1531.2499999981374,1362.4999999981374,-168.75,939.5,1610.9000000059605,671.4000000059605,939.5,8.0,0.2962962962962963,1.0,0.02,-115.86666666467977,-0.2833333333333333,-288.75999999791384,-0.20904761904761904,248.4000000078231,840.1500000059605,224.67928571129823,643.1000000139078,0.0,839.7833333238959,0.5,61.61666667213035,0.5,504.7080000025033,0.24,-16.889999998807937,-0.05999999999999999
1Vb7DcXYw9R86bw5qj9eBk9fPqA2,1812.949100908218,0.5477225575051662,1480.5333333412805,2489.9999999950332,-1009.4666666537528,0.0,0.5,-0.5,2255.419999996821,974.6517187067996,1581.1085714263577,371.1534840901055,1351.2399999976158,0.0,1.0,1351.2399999976158,4005.1400000035765,2627.073333340883,0.0,1825.299999997019,1.0,2657.286666673422,-1122.6599999994046,0.0,0.23977764812958463,-57.349999999999866,0.0,1874.0249999960263,1.2,0.41666666666666663,3993.35000000149,2119.325000005464,1874.0249999960263,1.2,0.24,3993.35000000149,2119.325000005464,,0.0,0.0,2793.724999997765,4591.47500000149,1797.7500000037255,,,,,8.0,0.34782608695652173,1.0,0.021739130434782608,,-0.41666666666666663,,-0.24,,,674.3114285704632,5194.300000031789,1.0,2878.9666666686535,0.5,1091.5666666676602,0.0,1326.5813333404062,0.12000000000000002,-733.8140000009537,-0.10000000000000005
1dpmVw8fpcc2IHs0s9WqdU8Yvi53,1356.3044792729795,0.5477225575051662,1154.7999999324484,3126.3166667024298,-1971.5166667699814,0.0,1.0,-1.0,2062.8700000047684,891.7040774763642,1494.5914285864148,606.7120472764163,1432.3400000095367,0.0,1.0,1432.3400000095367,3473.5799999952314,1832.9133333126708,0.0,,1.0,1886.3266666571296,-790.2399999976162,0.0,0.3880268298123378,11.837857148477074,0.0,1738.3600000143051,1.2,0.5,3277.439999985695,1539.07999997139,1738.3600000143051,1.2,0.27,3277.439999985695,1539.07999997139,,0.0,0.0,2364.128571442195,3554.0428571360453,1189.91428569385,,,,3539.4999999403954,7.0,0.3181818181818182,3.0,0.06,,-0.5,,-0.27,,,568.2785714183535,602.333333293597,0.0,1697.5166666706405,0.5,2583.5999999642377,0.5,289.8173333136241,0.08,-559.8139999985696,-0.08
1fbLQPCcysVlSKup96K4yI5NX6G3,661.5168518970655,0.0,36.76666663090384,643.4166666467985,-606.6500000158946,1.0,1.0,0.0,1403.3994999897482,590.6881760844101,1141.7002197910142,268.847056099177,1068.2599999904633,0.4,1.4,1135.4799999952315,1601.7199999809266,436.19999995231626,0.4,191.85375000181642,0.86,1427.133333325386,-63.20000000000025,0.0,0.2360409735117189,-28.54208791059448,0.015384615384615375,1177.563888884253,1.6,0.37666666666666665,1759.6444444391464,582.0805555548933,1203.0249999976159,3.2,0.4023376623376623,1700.1769999873638,497.15199998974805,1299.3000000715256,0.2,0.015384615384615385,1403.1526315651442,1497.4368420902051,94.28421052506094,1299.3000000715256,1938.200000047684,638.8999999761584,3748.3333333730698,19.0,0.5,3.0,0.05660377358490566,121.73611118727263,-0.36128205128205126,96.27500007390972,-0.38695304695304694,440.7631579574788,544.6157894510974,261.69928019873396,-41.966666698455924,1.0,-130.9000000357628,1.0,811.0833333134651,1.0,278.72799996376034,0.5599999999999999,15.452000005245203,-0.24000000000000002
1tT7dcLvf0bMGBdBWWYd8YkdJwr1,310.5143462681284,0.5477225575051662,-51.91666672627127,127.80000009139383,-179.7166668176651,0.5,0.0,0.5,1663.1500000476838,593.8400289261111,1368.7952380874326,513.2941866416371,1369.2400000333787,0.8,2.4,1902.0200000524521,2281.860000014305,887.7266666730244,1.4,1198.5800000071524,0.6,1701.5066666603088,-278.7700000166896,0.0,0.3716495743755665,-34.51820869313699,0.033333333333333326,1411.4000000953674,0.2,0.1,1611.8000000715256,200.39999997615814,1286.650000065565,0.8,0.155,2487.850000023842,1201.1999999582767,3821.2333333094916,0.6,0.025,2272.520000052452,2255.960000014305,-16.560000038146974,3044.5499999821186,1695.5249999761581,-1349.0250000059605,3044.5499999821186,5.0,0.2,5.0,0.07936507936507936,2409.833333214124,-0.07500000000000001,2534.5833332439265,-0.13,-560.4350000381469,-1332.4649999678136,294.35476196025115,56.46666677792882,1.0,54.66666666666674,0.0,21.21666669845581,0.5,545.4066666682561,0.2,55.959999992847344,-0.08000000000000003
1upUBO9zBnhHcpJ1WoAnaBXWKRV2,419.40646069047324,0.5773502691896258,-287.30000001192104,-722.9666666587195,435.6666666467985,0.0,1.0,-1.0,1806.9899415306184,813.7525146430785,1595.2703703682892,573.6880549359297,1186.866666674614,0.0,1.0,1186.866666674614,1374.4666666785877,-298.21111110183926,0.0,224.22245613841972,0.8947368421052632,1508.966666665342,-81.88333332538639,0.0,0.36596011077638274,91.3175950438595,0.22222222222222224,1783.0222222324876,2.6666666666666665,0.6388888888888888,1910.686111115747,127.6638888832595,1813.5299145389572,6.666666666666667,0.5303030303030303,1969.0912393181243,155.56132477916708,1205.038095238663,14.0,0.2222222222222222,1546.9857142965,1589.2714285765376,42.28571428003767,1205.038095238663,1222.4571428554398,17.419047616776975,1293.3999999991872,21.0,0.5833333333333334,44.0,0.4782608695652174,-577.9841269938247,-0.41666666666666663,-608.4918193002943,-0.30808080808080807,-366.8142857210978,-24.8666666632607,211.7195711623292,-722.9666666587195,1.0,-287.30000001192104,0.0,115.63333336512278,1.0,155.6288888957766,0.6,-17.406666666269395,-0.09999999999999999
23AEyocWhqY955WHbxhHRSgQ1ms2,699.9139012129814,0.0,494.38333333407854,780.8333333333334,-286.4499999992548,1.0,1.0,0.0,1540.376666666861,541.789286524582,1158.031428571684,329.64540189239835,1026.3,0.6,1.6,1391.340000002086,2229.380000001192,1156.6066666667662,0.6,140.05458874479902,0.7424242424242424,1632.6533333321413,-604.8400000005965,0.0,0.28887547137718655,-53.09571428522459,0.0,1095.2000000029802,0.6,0.1619047619047619,1638.175000000745,542.9749999977648,1426.866666668157,1.6,0.21841269841269845,1883.7166666676599,456.8499999995032,,0.0,0.0,2049.217647058999,2122.535294116858,73.31764705785932,,,,,17.0,0.4358974358974359,1.0,0.021739130434782608,,-0.1619047619047619,,-0.21841269841269845,,,382.3452380951769,105.20000000049663,1.0,1266.8500000002484,1.0,8.366666667163486,1.0,588.4026666649183,0.4800000000000001,-156.26400000065578,-0.19999999999999996
23hG7h2ByUZDbmOMTDtp0HT0xRb2,1774.9016758417072,0.5,686.8333331743879,1627.7999997933707,-940.9666666189828,0.0,0.5,-0.5,1344.666666587194,403.275042498206,1316.056043943206,552.5817723945968,1223.0499999523163,0.25,1.25,1197.75,3356.4999998807907,2209.4166665077214,0.25,-332.05000019073486,0.7916666666666667,1692.8916666905084,-696.4375000000007,0.0,0.37499003035852096,-93.41579667355988,0.038461538461538464,1314.4666666984558,0.75,0.375,2789.9999998410544,1475.5333331425984,1114.7374999523163,1.25,0.2583333333333333,2967.7749999165535,1853.0374999642372,1016.5999999046326,0.25,0.019230769230769232,1216.279999923706,2909.1999999046325,1692.9199999809266,3255.399999856949,4106.849999904633,851.4500000476837,2769.902325641277,5.0,0.2631578947368421,43.0,0.3944954128440367,-297.86666679382324,-0.3557692307692308,-98.13750004768372,-0.23910256410256409,1197.65,-841.4699999332429,28.61062264398788,-127.86666695276892,1.0,2582.9499998092656,0.0,-408.7666667302449,0.0,410.70166659355164,0.15,-378.7624999761583,-0.025000000000000005
28nQWMwCaSNFBEXlicY3eHqpwKU2,220.35897801727455,0.447213595499958,95.7666664918263,-179.78333330154408,275.5499997933704,0.0,0.5,-0.5,1344.2799999634424,59.984380775217275,1531.0030075295526,367.71763262566697,1295.2599999427796,0.0,1.0,1295.2599999427796,1600.739999961853,25.58666659990954,0.0,56.99999999999982,0.9333333333333333,1606.15333331426,-75.71999998092676,0.0,0.22623249725301314,17.430984963779224,0.06315789473684211,1326.1199999570847,1.2,0.5333333333333333,1617.2099999427796,291.08999998569493,1337.5199999570846,1.4,0.29666666666666663,1626.139999961853,288.6200000047684,2444.0,0.6,0.031578947368421054,1322.0857142380305,1582.91428569385,260.82857145581926,2356.5666666825614,2427.3000000317893,70.73333334922783,2395.0125000178814,7.0,0.30434782608695654,8.0,0.12307692307692308,1117.8800000429153,-0.5017543859649123,1106.4800000429154,-0.2650877192982456,844.3857143379394,-190.0952381065914,-186.72300756611025,295.96666661898325,0.0,-0.9166667064031344,0.5,-83.10000010331464,0.0,-9.765333379109618,0.12000000000000002,-38.71400000095368,-0.04
2FHuv7L9nWPdbIiWHRIuXtcoyw83,379.4370391338205,0.44721359549995804,508.6666666666667,215.16666666670545,293.49999999996123,0.5,0.0,0.5,1591.56666666662,183.4779619424139,1167.2857142857142,481.72663097434935,1422.5999999999535,0.2,1.4,1590.3999999999535,1414.8,368.5333333333644,0.4,356.49999999999994,0.9,1602.9999999999845,-170.30000000004696,0.0,0.3990195168547973,-38.135714285717555,0.0,1651.083333333275,1.2,0.45,1493.75,-157.3333333332751,1640.9666666666199,1.6,0.3071428571428571,1607.6,-33.366666666620084,,0.0,0.0,1605.249999999971,1683.875,78.6250000000291,,,,1406.9999999997672,8.0,0.32,1.0,0.021739130434782608,,-0.45,,-0.3071428571428571,,,424.2809523809058,246.00000000007765,0.0,124.66666666674422,0.5,599.1666666666279,0.0,425.61333333336444,0.16,-46.120000000004666,-0.08000000000000002
2h5FgHUEvBS1twD5DqbTIRrMm1f2,3131.733001653029,0.5477225575051662,1253.2499999701975,5291.516666650771,-4038.2666666805735,0.0,0.5,-0.5,2145.997666654289,1177.0565818954085,1469.0857142936616,861.4216976128075,965.9799999833107,0.2,1.2,1050.1199999928474,4076.939999985695,2852.8733333110804,0.2,533.1398809607895,0.7583333333333334,2294.379999999205,-1770.8300000011932,0.0,0.5309316308984077,-15.247929403738945,0.05217391304347827,1076.4874999821186,1.0,0.36666666666666664,4441.949999988079,3365.46250000596,1554.7599999884765,2.0,0.27835497835497836,4167.193333325783,2612.4333333373065,8385.199999988079,0.6,0.02608695652173913,2445.0466666579246,3314.7133333245915,869.6666666666665,4991.1500000059605,3266.900000011921,-3399.5,4910.160000002385,15.0,0.4166666666666667,7.0,0.1111111111111111,7308.7125000059605,-0.3405797101449275,6830.439999999602,-0.2522680218332392,-47.81333331267069,-4269.166666666666,676.9119523606273,-420.46666663885117,1.0,1719.4666666487853,0.5,4825.299999972183,0.0,1293.737333319187,0.36,-255.8599999964234,-0.10000000000000003
2zDXvJKvjeejeOSNbtDbtSI5cdz1,787.8432970957597,0.5477225575051662,57.80000000167604,-79.90000000099326,137.7000000026693,0.5,1.0,-0.5,1785.976666667002,597.7106935726285,1472.2314285713649,526.940239033802,1349.0400000002235,0.2,1.2,1485.7200000002981,2581.360000000894,852.1800000009437,0.2,1832.0000000009313,0.9333333333333333,1776.8200000004224,-401.5900000000377,0.0,0.33346605985160366,67.65071428581815,0.0,1490.7500000004657,0.8,0.3333333333333333,2115.150000000838,624.4000000003725,1485.7200000002981,1.0,0.21333333333333332,2581.360000000894,1095.640000000596,,0.0,0.0,1949.4000000003725,2548.0625000004657,598.6625000000931,,,,1795.9000000003723,8.0,0.3333333333333333,1.0,0.02127659574468085,,-0.3333333333333333,,-0.21333333333333332,,,313.7452380956372,1324.5000000018624,0.0,493.6833333335816,1.0,-515.7833333328988,0.5,83.70800000016872,0.16,-158.244000000246,-0.14
3FSnTCSiUodLp5u3bE0xaUjLk0b2,713.9988987698148,0.5477225575051662,742.7833333333643,465.7499999999222,277.03333333344216,0.5,0.5,0.0,1491.060000000091,485.11044290680667,1166.5497142857064,253.78059119215177,1153.3800000000745,0.4,1.4,1150.3800000000745,2046.6799999999814,967.8666666666355,0.4,136.4142857142891,0.825,1559.2733333333085,-238.6799999999351,0.0,0.22076753514357642,-19.289571428567324,0.01333333333333333,1140.0000000001553,0.6,0.26666666666666666,2419.066666666729,1279.0666666665734,1223.0800000001211,1.6,0.25272727272727274,2165.1899999999905,942.1099999998696,,0.0,0.0,1507.0600000000559,2128.3099999999627,621.2499999999069,886.5,1245.9000000003723,359.4000000003723,2959.149999999907,10.0,0.3448275862068966,3.0,0.05454545454545454,,-0.26666666666666666,,-0.25272727272727274,-882.4099999995904,-261.8499999995346,324.5102857143845,1777.9666666667908,1.0,804.6666666665112,0.5,403.86666666677525,0.5,433.67066666665795,0.2,-118.01599999995894,-0.08
3WijiOiVCoMbn80F05SPYsxl0TC2,729.7062503578995,0.44721359549995804,-96.71666663885105,577.1166667143501,-673.8333333532012,0.5,1.0,-0.5,1790.7466666777932,538.5626704590728,1141.025714288439,253.4208395307936,1577.3600000143051,0.2,1.2,1603.4400000095368,1810.3800000429153,612.4533333698906,0.2,434.1814285743804,0.7666666666666668,1495.826666649183,-324.91000001430547,0.0,0.20619303156406849,-3.8585714306149343,0.0,1914.5875000059605,1.2,0.36666666666666664,1983.1875000447035,68.60000003874302,1776.8599999944367,1.8,0.27999999999999997,2123.153333365917,346.2933333714801,,0.0,0.0,1875.0416666766007,2033.1416666805744,158.10000000397366,,,,4060.0500000417233,12.0,0.3870967741935484,4.0,0.08163265306122448,,-0.36666666666666664,,-0.27999999999999997,,,649.7209523893541,1636.5666666030884,1.0,372.3333333134651,1.0,108.06666676203395,0.5,350.14133331934613,0.31999999999999995,-154.07600001573564,-0.18000000000000002
3rlzYufVjVVLv3ZFLcpfZUtXEEi1,332.80714519612866,0.5773502691896257,-241.11666711171472,32.88333288828534,-274.00000000000006,0.5,0.5,0.0,1113.7093748092652,311.2503191847926,1122.3909357170958,326.1060134804027,905.7999999523163,0.5,1.5,968.375,1178.6499996185303,25.633332888285338,0.5,109.31470582485203,0.746875,1166.1916666030884,-151.21249985694908,0.0,0.2861796118644794,7.14849650415626,0.12074592074592072,957.8000001907349,0.5,0.25,1118.8499994277954,161.04999923706055,1191.1487498760223,4.0,0.36907894736842106,1238.447499716282,47.298749840259546,1055.4916667143505,1.25,0.1015151515151515,1037.9352939269122,1100.1941174338845,62.258823506972384,1008.9666666984558,1182.8999999364216,173.93333323796585,1375.847058688893,17.0,0.4722222222222222,17.0,0.18478260869565216,97.6916665236156,-0.1484848484848485,-135.65708316167184,-0.26756379585326956,82.70588250253718,111.67450973099346,-8.681560907830544,-323.33333365122473,1.0,94.68333307902014,0.5,-282.5000009536743,0.0,-23.106666882832847,0.45,11.345000076293935,-0.05000000000000002
3xCaqfcHxRQxuOlEzXz3PNcHODH2,924.5700458359719,0.44721359549995804,774.0833333283664,134.00000000745047,640.0833333209159,0.5,0.0,0.5,2291.14999999851,638.7295554437011,1178.0077922090697,370.68392936688906,1573.119999998808,0.6,8.5,2265.25,1821.8500000052154,587.0333333363136,7.5,,1.0,1303.1333333363134,-67.51999999731792,0.0,0.3089792481946145,12.6691818182984,0.018181818181818188,1891.2999999970198,0.4,0.13333333333333333,1882.8499999940395,-8.450000002980232,1891.2999999970198,0.4,0.08,1882.8499999940395,-8.450000002980232,1911.1000000089407,0.2,0.01818181818181818,2157.86666666468,1754.43333333234,-403.43333333233994,1911.1000000089407,1644.7000000029802,-266.40000000596046,2367.0500000044703,3.0,0.16666666666666666,2.0,0.0392156862745098,19.80000001192093,-0.11515151515151514,19.80000001192093,-0.06181818181818182,-109.73333332935977,137.03333332637948,1113.1422077894401,965.4666666636865,0.0,1209.2833333313465,0.5,-301.1999999955297,0.0,86.38666666706406,0.08,-89.63400000005959,8.611689126458168e-18
4ySuGdFDDmaAr6JUXbD4UIY6BQ13,898.9128759538113,0.5477225575051662,727.383333333341,1002.5000000000776,-275.1166666667366,0.5,0.0,0.5,1424.423333333328,580.9333833174039,1042.6719327731057,293.991949441879,1086.5999999999535,0.4,1.4,1070.8600000000092,3162.1600000000094,1992.3800000000124,0.4,565.660000000021,0.7333333333333334,1646.379999999997,-491.9099999999864,0.0,0.2829862247944863,24.52981092436557,0.011764705882352944,932.8999999999845,0.6,0.3,2225.6666666667443,1292.7666666667599,1198.05,1.2,0.2304761904761905,2665.2000000000235,1467.1500000000233,1060.5,0.2,0.011764705882352941,1344.0999999999933,2607.8714285714086,1263.7714285714153,1060.5,1951.8999999999069,891.3999999999069,2735.399999999907,7.0,0.2692307692307692,2.0,0.03571428571428571,127.60000000001548,-0.28823529411764703,-137.54999999999995,-0.21871148459383755,-655.9714285715017,-372.37142857150843,381.75140056022224,-76.06666666649596,1.0,1581.4833333333954,0.0,148.40000000002328,0.5,561.4439999999975,0.16,-307.1280000000028,-0.10000000000000003
50R0P1MIMvRvK1qpqfGROchII6R2,387.683375425406,0.5,-73.98333334922785,241.1666669050852,-315.15000025431306,1.0,0.5,0.5,1104.4107143070016,313.3700127958892,1110.6122764823613,416.23146785572044,987.9249999523163,0.5,1.5,1087.9499999284744,879.5749999284744,-156.2083332935969,0.5,70.72481276674579,0.7708333333333334,1008.3555555343627,-120.69999988873816,0.0,0.3659978444607825,-16.10195140617958,0.35065453384418904,900.5333332220713,1.0,0.3125,939.7000000476837,39.166666825612424,1103.984027809567,5.75,0.5395833333333333,1123.746527797646,19.76249998807907,1260.109523821634,5.0,0.24018199233716475,1117.817857180323,1117.9888888994853,0.13333331214057076,1295.0249999960263,1208.8333333532016,-86.19166664282481,1316.6692307728988,28.0,0.5714285714285714,26.0,0.3291139240506329,359.57619059956266,-0.07231800766283525,156.12549601206706,-0.29940134099616855,90.84444445371628,-86.32499995496538,-6.201562175359641,-178.0999997456869,0.0,292.3166668415069,1.0,-72.1666668256122,1.0,-44.14388879405129,0.5166666666666667,-36.97083334525427,-0.19166666666666682
5OOi73igsahMZ5IVKQwwyhnj4Cn2,345.74425487300425,0.0,-57.44999999956576,65.73333333316236,-123.18333333272813,0.0,0.0,0.0,2845.109523809471,401.47894678179165,1514.4514285714233,433.2745951685788,3319.2200000000184,0.4,3.5,3790.5250000000233,1897.0249999999069,310.7666666666045,2.5,-48.974999999993216,0.8571428571428571,1977.3266666667223,-329.43000000002843,0.0,0.2734255692301829,11.83500000001936,0.0,2162.899999999907,0.2,0.1,1833.9000000003723,-328.99999999953457,1898.2999999999302,0.6,0.09,2701.4500000001863,803.150000000256,,0.0,0.0,2934.7333333333177,2311.0833333333335,-623.6499999999845,,,,4395.700000000186,6.0,0.25,1.0,0.021739130434782608,,-0.1,,-0.09,,,1330.6580952380475,514.6999999998764,0.0,245.51666666675942,0.0,-237.23333333316282,0.0,131.6133333333209,0.08,63.56199999996465,0.019999999999999983
5Z68AKm9rIeeB2lVu3nJO7U31wk1,919.32765307191,0.0,209.39999999975146,-9.633333332836628,219.0333333325881,1.0,1.0,0.0,999.6952380954422,397.8489916828664,1265.3642089094099,567.342907019861,1142.699999999876,0.3333333333333333,1.3333333333333333,1175.3333333333333,921.8000000007451,-368.7111111103248,0.3333333333333333,75.16079670324882,0.9047619047619048,1320.0222222223463,-171.96666666710155,0.0,0.42581744375980485,33.24538594459952,0.22580645161290325,1005.9694444447134,3.6666666666666665,0.4222222222222222,844.008333333561,-161.9611111111525,967.3629629632665,5.0,0.4431372549019608,873.6055555558005,-93.75740740746603,1011.406060605846,4.666666666666667,0.15053763440860216,988.2857142858917,996.7952380954687,8.509523809577033,1186.8285714284118,1034.6450000001118,-159.31999999973917,1259.2791666664805,21.0,0.65625,24.0,0.25,5.436616161132633,-0.27168458781362004,44.043097642579596,-0.29259962049335864,37.849761904643174,-167.82952380931619,-265.6689708139677,-9.633333332836628,1.0,209.39999999975146,1.0,-1481.0999999990067,1.0,-438.2444444441547,0.6666666666666666,-6.1700000001117346,-0.1333333333333334
5rXSa3anB5ejmFrnwUsTB82byup1,314.5753689939656,0.5477225575051662,393.81666666672874,-14.416666666511446,408.2333333332402,0.0,1.0,-1.0,909.7766666667303,99.3727185681311,854.5613186813256,135.24146703671093,869.7600000000559,0.4,1.4,878.7400000001304,1211.239999999944,331.48666666665423,0.4,159.88999999992078,0.8333333333333334,1111.94666666671,-219.52999999993503,0.0,0.16159431725893306,4.394010989005946,0.04615384615384614,918.6333333334575,0.6,0.3,1309.0999999999378,390.46666666648025,871.3600000001024,1.2,0.24047619047619045,1290.9799999999348,419.61999999983226,742.6000000000931,0.2,0.015384615384615385,953.0857142857276,1241.114285714259,288.02857142853145,676.3333333333334,728.1666666666666,51.833333333333336,997.2249999999767,7.0,0.28,4.0,0.06666666666666667,-176.03333333336434,-0.2846153846153846,-128.7600000000093,-0.22509157509157507,-512.9476190475924,-236.1952380951981,55.21534798540472,407.53333333320893,0.0,302.05000000004657,0.5,77.35000000017072,0.5,131.822666666725,0.16,-55.52200000000184,-0.10000000000000003
5zxa5CMLGQSSonWOXqXf0QNS3PH3,547.3860464824743,0.5477225575051662,951.0000000198681,411.4166666865348,539.5833333333333,0.5,0.5,0.0,1386.1250000139078,339.045390478476,1175.0537729014627,474.5018742696692,1187.5600000143052,0.4,1.6,1234.4200000047683,1625.0599999904632,715.6266666571299,0.6,-73.54499999284737,0.7666666666666667,1243.2866666634877,-232.0499999880793,0.0,0.3910076219598169,-60.66895604032974,0.04743589743589745,1306.5666666825612,0.6,0.2333333333333333,1908.0999999841054,601.5333333015442,1234.4200000047683,1.0,0.1919047619047619,1625.0599999904632,390.63999998569494,820.5000000596046,0.4,0.03076923076923077,1472.8375000059605,1613.0249999910593,140.18749998509887,1790.666666706403,1156.100000023842,-634.5666666825613,1598.7750000059605,8.0,0.2962962962962963,5.0,0.08333333333333333,-486.0666666229565,-0.20256410256410254,-413.9199999451637,-0.16113553113553114,-456.9249999672172,-774.7541666676601,211.07122711244506,1109.499999920527,1.0,375.89999997615797,0.5,986.5166667302451,0.5,436.862666665713,0.2,-34.617999997138924,-0.14
62fAfeQc27bZelkPX7G54T3gvci2,1672.2126683372744,0.0,4153.950000000342,6786.383333333457,-2632.433333333115,0.0,0.0,0.0,1752.7333333334573,607.6338823118208,1365.7285714286247,377.5909455628015,1203.0400000002235,0.0,1.0,1203.0400000002235,6692.300000000279,5470.1666666669,0.0,1117.2999999993478,0.9333333333333333,2682.793333333358,-1974.4375000000014,0.0,0.277558976734607,-74.06999999997859,0.0,1203.0400000002235,1.0,0.5,6692.300000000279,5530.074999999953,1426.5000000000932,1.2,0.26666666666666666,6031.28750000021,4589.737500000047,,0.0,0.0,1624.1500000000622,5797.400000000186,4121.680000000075,,,,4313.200000000186,6.0,0.2727272727272727,2.0,0.041666666666666664,,-0.5,,-0.26666666666666666,,,387.00476190483255,,0.0,4920.2166666669455,0.0,6020.116666666853,0.0,1580.0533333333303,0.04,-1151.1733333333366,-0.020000000000000004
6ABZuv4jbjgE0B8TeyUk6nwVb122,1000.7029035179469,0.447213595499958,1002.966666618983,956.5666666825612,46.399999936421864,0.0,0.5,-0.5,1824.9799999078114,327.45209000502945,1736.955661420469,409.20902424087626,1491.379999923706,0.2,1.2,1469.4999999046327,3413.1999999046325,1546.6933331807454,0.2,1519.7999999523163,0.8333333333333334,2232.9733332951864,-824.319999980927,0.0,0.2346061147604948,-42.04198413943185,0.029629629629629627,1410.0249998569489,0.8,0.4,3518.024999976158,2108.0000001192093,1469.4999999046327,1.0,0.22333333333333333,3413.1999999046325,1943.7,2043.5499999523165,0.4,0.014814814814814814,1913.5166665712993,3220.0666666030884,1306.550000031789,2235.4999998807907,2622.350000023842,386.85000014305126,2235.4999998807907,6.0,0.2608695652173913,4.0,0.06153846153846154,633.5250000953677,-0.3851851851851852,574.0500000476839,-0.20851851851851852,-597.7166665792465,-919.6999998887378,88.02433848734245,2527.8999997774763,0.0,280.0333333810171,0.5,1679.499999920527,0.0,398.36933327992756,0.08,-360.2819999599456,-0.06
6OwhwWQDThSPHTVAeXugohrYuje2,,,,,,,,,,,,,,,,,,,,,,,,,,,,,,,,,,,,,,,,,,,,,,,1683.0666666603088,0.0,,75.0,0.5859375,,,,,,,,,,,,,,,,,
6WFCyGwk71XLPBmbe4Vav3eotVm1,970.6075274736025,0.5477225575051662,512.5,1319.3166666030884,-806.8166666030884,1.0,0.0,1.0,1722.2524998307229,195.34638837470158,968.2771427699497,150.85475464049708,1952.4199997901917,0.6,1.5,1813.4749997854233,2202.3999997377396,1255.34999982516,0.5,-304.73999986648556,0.825,1739.6933332443236,-402.8799999237064,0.0,0.15780768097494852,-18.09071428435184,0.0,1022.8999996185304,0.2,0.1,2869.599999904633,1846.7000002861027,1073.166666507721,0.8,0.13999999999999999,1990.1666665871937,917.0000000794731,,0.0,0.0,1575.685714176723,1940.2999999182564,364.6142857415337,,,,,7.0,0.2916666666666667,0.0,0.0,,-0.1,,-0.13999999999999999,,,753.9753570607731,1788.6666666666672,0.0,1093.5833332538605,0.5,738.2333333492279,0.5,487.8720000012716,0.2,-183.6139999675751,-0.08000000000000003
7cvQFrzIDEVAkFCcGAHZPUvJ2MF3,1063.5042599996411,0.5477225575051662,43.79999987284339,214.86666667461407,-171.06666680177068,0.0,1.0,-1.0,1682.0599999586743,220.68601690717293,1580.7800000054497,358.22345706532286,1607.4399999618531,0.4,1.4,1670.1599999904636,1939.4200000286103,459.8466666539509,0.4,228.1999999880789,0.7666666666666668,1837.9533333301545,-25.820000028610558,0.0,0.23014384615931455,-43.87357142141873,0.0,1629.2999999523165,0.6,0.3,2181.8333333333335,552.5333333810167,1740.3200000047686,1.2,0.24,1890.8300000190734,150.51000001430484,,0.0,0.0,1796.857142857143,1783.1142857415336,-13.742857115609533,,,,2757.2599999904633,7.0,0.28,5.0,0.09803921568627451,,-0.3,,-0.24,,,101.27999995322466,2093.2000001271563,0.0,557.0833333730696,0.5,-298.4166668256122,0.5,273.7106666215261,0.16,-88.63600000858305,-0.12
80UJMJbCOMgs6YVpsMgXfYTzw6o2,507.2420643929443,0.5477225575051662,954.5833333342647,178.71666666585946,775.8666666684053,1.0,0.0,1.0,1384.55,542.0822005934417,1099.5399999999042,225.390130014954,1001.239999999851,0.2,1.2,1189.4800000000746,1748.7799999997019,648.5866666664681,0.2,,0.9,1367.2933333328615,-142.43999999985124,0.0,0.19750464433539613,1.3435714285554838,0.0,1005.7999999998137,0.8,0.3333333333333333,1697.8249999997206,692.0249999999069,1189.4800000000746,1.0,0.22000000000000003,1748.7799999997019,559.2999999996275,,0.0,0.0,1497.3428571429104,1808.3571428568769,311.0142857139664,,,,4773.800000000124,7.0,0.30434782608695654,3.0,0.0625,,-0.3333333333333333,,-0.22000000000000003,,,285.0100000000957,947.9333333335817,1.0,835.9833333337058,0.5,297.3166666664183,0.5,286.23066666652755,0.12,-163.40999999996276,-0.11999999999999998
87w5Le0CgZhSfYAaOH3Xd2fc98l1,556.4252982706132,0.44721359549995804,1218.7166666680325,889.2833333325883,329.4333333354442,0.5,0.0,0.5,1771.2616666669335,448.654592021817,1447.2192346249526,376.4075191173899,1235.159999999404,0.2,1.6,1278.0,2056.419999999553,878.7666666666668,0.6,166.19136363672027,0.8666666666666667,1594.6733333331845,-291.27999999933,0.0,0.2601966455591752,-81.35733950280857,0.07773279352226721,1592.6450000001116,1.6,0.425,2295.419999999739,702.7749999996277,1654.4125000002482,2.0,0.258974358974359,2353.8791666664183,699.4666666661701,1690.125,0.8,0.051821862348178135,2079.1083333333954,2467.258333333147,388.1499999997516,1708.2666666662942,1613.8833333322157,-94.38333333407843,3630.1100000003976,12.0,0.4,32.0,0.32653061224489793,97.47999999988838,-0.37317813765182184,35.7124999997518,-0.20715249662618085,-853.3750000009315,-482.53333333383006,324.0424320419809,90.23333333432674,0.0,1260.1666666666665,0.5,847.8333333339542,0.0,815.0266666672626,0.4,83.37399999991065,0.08000000000000002
8bwaafIhKVMNBoHaXFcY8HirS9u2,427.44896813351374,0.5477225575051662,495.44999992847454,731.25,-235.80000007152546,0.5,0.0,0.5,1077.591666628917,275.83881041835554,1113.037857147285,441.6830646663595,980.1799999713897,0.6,1.75,986.8000000119209,3141.175000011921,2209.791666686535,0.75,40.8000000715254,0.7083333333333334,1708.2466666698456,-915.6199999809271,0.0,0.3135679188601272,-79.22696240421513,0.030000000000000006,752.1000000238419,0.4,0.16666666666666666,1816.5,1064.3999999761581,986.8000000119209,0.8,0.16333333333333333,3141.175000011921,2154.375,1669.7333332697551,0.6,0.03,1174.5599999904632,2951.959999990463,1777.4,1669.7333332697551,1579.5999999841054,-90.13333328564977,2796.099999964237,5.0,0.21739130434782608,4.0,0.06779661016949153,917.6333332459133,-0.13666666666666666,682.9333332578342,-0.13333333333333333,-1372.3600000063577,-1867.5333332856499,-35.446190518367985,387.0333333015442,1.0,945.850000023842,0.5,280.84999990463257,0.0,525.386666660309,0.16,-172.4579999923707,-0.06000000000000003
8cOQBMgQEYSlJ4CK60pFMmBVEBV2,1240.8684947772722,0.4472135954999579,-160.55000019073486,88.74999984105426,-249.30000003178912,1.0,1.0,0.0,1127.6499998092652,150.15666209369024,1289.4914285114833,527.9261053166334,1159.179999923706,0.6,1.6,1014.6599996566772,2278.9,1194.266666730245,0.6,264.89999961853044,0.7333333333333334,2020.8266665776573,-812.179999828339,0.0,0.38578608548842797,-116.03642856734125,0.0,1169.6499998569489,0.6,0.2333333333333333,3500.0499997138977,2330.399999856949,1008.7999997138977,1.2,0.24333333333333335,2620.779999923706,1611.9800002098084,,0.0,0.0,1163.9999997275215,2697.3857141222275,1533.3857143947057,,,,3044.8199998378755,7.0,0.28,21.0,0.2876712328767123,,-0.2333333333333333,,-0.24333333333333335,,,-161.84142870221808,2715.8333330154414,0.0,14.716666698455754,1.0,-86.51666704813636,1.0,681.106666577657,0.2,-106.76399999618529,-0.17999999999999997
9NTZ091xWyOO8DgzyTGY0O3i8IR2,261.5195206225157,0.5477225575051662,-47.649999999751685,-94.4500000011173,46.80000000136562,0.5,0.5,0.0,1616.0083333338455,214.25371291407416,1251.633648827958,481.2346613449533,1661.320000000298,0.6,3.2,1880.6000000003726,1758.199999999255,563.7933333323647,2.2,-270.29999999981425,0.7916666666666667,1279.3133333331593,-343.85999999940435,0.0,0.37305905540076634,26.403449653571975,0.03281733746130031,1805.6500000003725,0.4,0.16666666666666666,1106.499999999069,-699.1500000013036,1521.9125000005588,1.0,0.19666666666666668,1742.5374999993946,220.62499999883596,978.6000000005587,0.4,0.021052631578947368,1419.7333333337058,1731.5499999995034,311.81666666579747,1922.4000000003725,1803.2666666662942,-119.13333333407832,1876.4250000002794,6.0,0.2608695652173913,4.0,0.058823529411764705,-827.0499999998138,-0.14561403508771928,-543.3125000000001,-0.1756140350877193,71.71666666679084,-430.9499999998758,364.37468450588744,-328.43333333234,1.0,161.9999999996897,0.0,-304.1000000005587,1.0,12.4773333330949,0.16,-58.80799999985851,-0.14
9Xz1RIwnPXgyRqmucudW9VeuDnq1,568.2033282393805,0.5477225575051662,1006.3333333334497,77.33333333337214,929.0000000000775,1.0,0.5,0.5,1505.1000000000233,337.5727773384907,1399.4571428571428,618.3770756501596,1295.6,0.0,1.0,1295.6,1750.0000000000466,421.60000000006204,0.0,,1.0,1248.9333333333334,116.09999999999977,0.0,0.44349200180560955,-41.471428571431765,0.0,1505.1000000000233,1.6,0.5999999999999999,1461.9000000000233,-43.2,1505.1000000000233,1.6,0.34,1461.9000000000233,-43.2,,0.0,0.0,1632.875000000029,1556.750000000029,-76.125,,,,1497.0000000002328,8.0,0.34782608695652173,1.0,0.020833333333333332,,-0.5999999999999999,,-0.34,,,105.64285714288053,-59.33333333333326,0.0,615.3333333334497,0.5,468.33333333337214,1.0,80.08000000002482,0.12,-32.920000000009296,-0.11999999999999998
9l7DjYLs0XdgwykPZR5E01KTZfu2,2054.228281672543,0.447213595499958,4727.166666706403,2584.7666667103767,2142.399999996026,0.0,0.5,-0.5,1466.7466666618984,290.76653475019367,1003.7525714338393,320.4377027548229,1222.7,0.0,1.0,1222.7,4505.800000023842,3421.2200000286102,0.0,1414.3999999761581,1.0,2081.973333350817,-1595.6400000453,0.0,0.30072500489227,-19.76207143144944,0.01333333333333333,1505.5799999952317,1.2,0.5,4381.280000030994,2875.700000035763,1505.5799999952317,1.2,0.26666666666666666,4381.280000030994,2875.700000035763,1271.2000000476835,0.2,0.013333333333333332,1775.7714285680227,3942.9571428809845,2167.1857143129623,1271.2000000476835,3352.600000023842,2081.399999976158,1271.2000000476835,7.0,0.3181818181818182,1.0,0.018867924528301886,-234.37999994754819,-0.4866666666666667,-234.37999994754819,-0.25333333333333335,-590.3571428571427,-85.78571433680418,462.9940952280591,2482.2333333094916,0.0,3535.9333333770433,0.0,3776.0000000397363,0.5,761.3920000171662,0.08,-746.8260000085829,-0.06
A9AEg0g6c2P1Bk72HLmnK3oWJ9B2,455.95649058112537,0.5477225575051662,426.38333328564966,227.66666670640296,198.7166665792467,0.0,1.0,-1.0,1473.3933333237967,119.4960103224245,1116.6314285823278,326.3530664080374,1363.9999999523163,0.0,1.0,1363.9999999523163,1377.360000038147,275.22666668891907,0.0,239.55000001192082,0.9333333333333333,1406.4733333269755,-415.3099999904637,0.0,0.2846943200678665,-47.295714288098374,0.0,1444.2133333206177,1.6,0.5833333333333333,1497.5233333508172,53.31000003019972,1478.0633333206176,1.8,0.3466666666666667,1650.8033333460492,172.74000002543139,,0.0,0.0,1362.3888888623978,1671.077777783076,308.68888892067815,,,,2837.657142843519,9.0,0.36,7.0,0.12280701754385964,,-0.5833333333333333,,-0.3466666666666667,,,356.7619047414689,68.03333346048998,0.0,512.9000000158944,0.5,141.1499999761582,0.5,314.3666666507721,0.16,-21.659999990463312,-0.12
ASGvwW80q7VY7xFaLGZhVuErUQu2,835.2873455195496,0.5477225575051662,-344.8500003814698,439.59999974568694,-784.4500001271567,1.0,0.0,1.0,1234.899999745687,161.8112386121739,1309.8588570912682,358.7555500327794,1182.9799999237061,0.4,1.6,1132.179999923706,1619.2399997711182,306.0066665649415,0.6,136.66666666666663,0.7333333333333334,1756.5200000762939,-480.7900001525883,0.0,0.27524626032682875,-48.192428599766245,0.01333333333333333,1196.7666664123535,0.6,0.26666666666666666,1606.8333326975505,410.066666285197,1239.579999923706,1.4,0.2566666666666667,1634.419999885559,394.8399999618531,,0.0,0.0,1182.2624998092651,1791.2249999046326,608.9625000953674,1583.599998474121,2051.5,467.9000015258789,1583.599998474121,8.0,0.2962962962962963,1.0,0.018867924528301886,,-0.26666666666666666,,-0.2566666666666667,260.27500009536743,-141.06249856948853,-74.95885734558124,0.6333325703940318,0.0,582.6999994913738,0.5,-487.95000012715667,0.5,254.3706668090821,0.2,11.294000129699702,-0.14
AUKCfn4HzgVB7m6LNnh2gQb7G5s2,2493.881708022097,0.0,3273.466666777929,-144.56666668256128,3418.03333346049,1.0,1.0,0.0,1835.5220000743866,719.5133255924919,1276.7785714353836,335.60962368638445,1435.660000038147,0.2,1.2,1351.4800000190735,2821.0400001525877,1601.3200001398723,0.2,-211.11324327443094,0.82,1920.1466667175293,-775.2000000476842,0.0,0.2586975925553575,-14.62739562244202,0.01428571428571428,2327.5125000476837,1.6,0.45714285714285713,2916.887500166893,589.3750001192093,1803.6633333524067,2.0,0.3194444444444444,2506.2866668224333,702.6233334700266,,0.0,0.0,2183.784615443303,2985.6769231649546,911.775000055631,873.9000000953674,1048.7000002861023,174.80000019073486,2330.6500000158944,14.0,0.4375,6.0,0.0967741935483871,,-0.45714285714285713,,-0.3194444444444444,-1936.9769228788523,-736.9749998648962,558.743428639003,430.8000005086262,1.0,509.0000002384186,1.0,2619.899999856949,1.0,799.7090000677108,0.39999999999999997,-236.41750001509973,-0.13999999999999996
AsXBOflrszVNKoFqbN61bMJqS0k2,521.8952584365974,0.5477225575051662,-53.44999998807879,443.2666666110359,-496.71666659911466,1.0,0.5,0.5,1054.5615000059208,190.33158874260198,1185.804085915846,367.6233186600701,958.0200000047683,0.4,1.4,971.4200000047683,1524.639999961853,444.0266666332881,0.4,89.01325396687257,0.8583333333333334,1711.0999999761582,-410.4100000023844,0.0,0.30317553123766083,-48.984159130690536,0.06713286713286715,959.4400000174841,1.4,0.3666666666666667,1699.5066666523617,740.0666666348776,1082.9979999995232,2.8,0.38257575757575757,1696.3579999876024,613.3599999880789,1171.9555555317136,1.0,0.05944055944055944,1145.45714283841,1653.849999989782,508.3928571513721,1214.9666666388512,1258.4666666984558,43.50000005960462,1214.9666666388512,14.0,0.42424242424242425,6.0,0.08333333333333333,212.5155555142295,-0.30722610722610727,88.95755553219033,-0.32313519813519814,-395.38333329132615,-464.89285709176744,-131.24258590992508,1049.4000000158944,0.0,420.2500000000003,0.5,-30.433333377043198,1.0,336.2866666618983,0.4,89.33400000572205,-0.12000000000000002
AyAnuCaltBbpEYbudoyNzTvXlcC2,1392.6095285205404,0.44721359549995804,2103.9166666666665,2638.033333361149,-534.1166666944823,0.5,0.0,0.5,2183.31333335042,962.0231144733573,1338.2561904765312,460.8851553210805,1210.9200000166893,0.0,1.0,1210.9200000166893,3411.700000011921,2260.8666666785875,0.0,248.53006992021903,0.8166666666666668,2454.666666674614,-1525.2500000059613,0.0,0.3188575499742341,-32.69771428738314,0.01333333333333333,1574.555000025034,1.6,0.5333333333333333,3774.775000011921,2200.219999986887,1698.8757143088746,2.4,0.29333333333333333,3998.0200000132836,2299.1442857044085,1337.699999988079,0.2,0.013333333333333332,2441.6133333524067,4162.693333343665,1721.079999991258,1337.699999988079,3152.899999976158,1815.199999988079,3679.430000013113,15.0,0.42857142857142855,11.0,0.14285714285714285,-236.85500003695483,-0.52,-361.1757143207956,-0.28,-1009.7933333675064,94.11999999682098,845.057142873889,1820.433333337307,0.0,1989.0333333512144,0.5,2752.916666676601,0.0,1407.5066666785874,0.24,-345.6320000028612,-0.08
BbwUTWswjtPWhb5DvLAmh9Hdpyl2,,,,,,,,,2512.3000000000466,1530.4619172000976,,,3594.5,1.0,2.0,1430.1000000000931,,,1.0,,0.5,,,,,,,,0.0,0.0,,,1430.1000000000931,1.0,0.5,,,,,,1430.1000000000931,,,,,,3429.755384615386,1.0,0.5,78.0,0.6190476190476191,,,,,,,,,,367.866666666853,1.0,,,367.866666666853,1.0,,
BcCTlXWx6ARh4rBtkdWRgZH3C7H2,205.13208838024238,0.5477225575051662,-247.6000001827876,-93.13333328564966,-154.46666689713794,1.0,0.0,1.0,1135.8250000039736,157.98892820721107,1241.1485714026858,348.67843004954136,1188.2000000476837,0.4,1.4,1163.0199999809265,1414.9799999713898,196.30666661262518,0.4,23.28999996980026,0.6333333333333334,1362.253333346049,-81.5899999856952,0.0,0.2814903063504637,37.70928572586611,0.0,1403.4500000476837,0.4,0.2,1349.4500000476837,-54.000000000000114,1249.8249999582767,1.0,0.18047619047619048,1664.1375000178814,414.3125000596047,,0.0,0.0,1161.7499999701977,1452.2749999761581,290.5250000059605,,,,2703.4500000476837,8.0,0.27586206896551724,2.0,0.041666666666666664,,-0.2,,-0.18047619047619048,,,-105.32357139871215,85.89999985694885,0.0,-20.6166667143504,0.5,-320.11666675408685,0.5,10.310666627883908,0.2,25.470000019073474,-0.1
C4HWhqUIJ3Rl6SboyJGqlrXFAJJ2,1678.1558287009534,0.5477225575051662,391.61666675408685,1744.7166666587193,-1353.0999999046326,0.5,0.5,0.0,1790.7366666714352,664.128597363328,1635.4193406412967,670.2440111931934,1551.4400000095368,0.2,1.2,1527.2000000476837,2752.239999961853,1153.0066666285197,0.2,232.6600000143048,0.8166666666666668,2072.9866666952767,-407.19000000953713,0.0,0.39075622443021324,-66.80383861329986,0.03891402714932126,1889.3125,1.0,0.4333333333333333,2189.712499946356,300.3999999463558,1927.8666666905087,1.8,0.319047619047619,2503.8199999809267,575.953333290418,4906.500000119209,0.4,0.02714932126696833,2146.000000026491,2652.766666650772,506.76666662428113,4836.600000143051,2563.0666666825614,-2273.5333334604898,4234.714285782406,9.0,0.3333333333333333,8.0,0.10256410256410256,3017.1875001192093,-0.40618401206636495,2978.6333334287006,-0.2918982977806507,-89.6999999682107,-2780.300000084771,155.31732603013847,-257.53333353996277,0.0,2374.100000063578,0.5,-237.76666665077198,0.5,458.0386666838328,0.2,-187.643999991417,-0.12000000000000002
CDEoAyvS8feXLKMKsaZah9agEhF3,1780.534750797404,0.447213595499958,2761.3333333334886,239.28333333336457,2522.050000000124,0.0,0.5,-0.5,1080.4533333333209,126.44257272382401,1191.25142857137,320.3921969567408,1034.4200000000187,0.2,1.2,1008.1799999999814,3766.475000000093,2542.6083333334736,0.2,-15.550000000046426,0.8333333333333334,2222.3333333333335,-1003.7999999999894,0.0,0.23907734309360026,-66.36071428570756,0.0,1060.1500000000233,0.8,0.4,3365.466666666791,2239.7666666667596,1005.0699999999721,1.2,0.25666666666666665,3826.500000000058,2786.037500000093,,0.0,0.0,1021.1000000000155,3516.2600000000557,2463.640000000037,,,,,6.0,0.2608695652173913,0.0,0.0,,-0.4,,-0.25666666666666665,,,-110.7980952380492,,0.0,666.616666666465,0.5,2334.0000000003884,0.0,843.8270000000484,0.08,-349.2863333333687,-0.06
CGyTPhevTbSvVnZ8qSP0NtWuhgw1,1163.7825344139708,0.44721359549995804,1030.783333381017,196.21666665871925,834.5666667222977,0.5,1.0,-0.5,1468.262888850636,498.3889257621651,1327.5575824024913,468.31154038061425,1044.0999999523162,0.6,1.6,1239.8999999523162,2480.32000002861,1259.7400000572206,0.6,65.90166668097179,0.7711111111111111,1828.8266666412353,-381.1700000047689,0.0,0.3526092928736143,1.925384611873899,0.03076923076923077,1153.5499999523163,0.4,0.16666666666666666,3137.5,1983.9500000476837,1311.4199999809266,1.8,0.255,2261.266666666667,949.8466666857403,1062.8999998569489,0.4,0.03076923076923077,1555.969230725215,2045.176923073255,489.20769234804004,1062.8999998569489,1680.7999999523163,617.9000000953674,1544.6333332856495,13.0,0.38235294117647056,7.0,0.12280701754385964,-90.65000009536743,-0.1358974358974359,-248.52000012397775,-0.22423076923076923,-364.3769231209387,128.6923077473274,140.7053064481447,1610.4999999205272,1.0,314.89999989668524,1.0,912.100000143051,0.5,502.45599999427805,0.36,-254.49999999523163,-0.14000000000000004
CN1ySCsiSLN4m9yh9fS4s5p6T8k1,1028.425520071143,0.5477225575051662,1966.2666666669152,523.9333333335818,1442.3333333333335,0.5,0.5,0.0,1738.8258333333574,431.39765473010357,1519.480000000008,403.0321576258915,1444.0600000000559,0.0,1.0,1444.0600000000559,2459.460000000149,992.1466666668033,0.0,102.30059523807019,0.95,1878.8333333333953,-332.6400000000376,0.0,0.26140709417106356,-28.658571428559334,0.0,1607.680000000028,1.6,0.5666666666666667,2649.760000000149,1042.0800000001211,1633.4433333333893,1.8,0.3012121212121212,2553.493333333498,920.0500000001088,,0.0,0.0,1750.4076923077496,2324.2230769231774,573.8153846154275,,,,4738.0999999999185,13.0,0.43333333333333335,4.0,0.0784313725490196,,-0.5666666666666667,,-0.3012121212121212,,,219.34583333334945,-19.666666666977108,1.0,1216.450000000264,0.5,1273.7500000002333,0.5,493.92266666668786,0.24,-239.1620000000204,-0.07999999999999999
CUNlBEszJVRGK1jWlTaOaCqpDg53,572.342122142783,0.4472135954999579,-15.100000001179524,102.48333333277452,-117.58333333395404,1.0,1.0,0.0,1296.0,183.87946907141105,1164.3335064937592,318.59740689097737,1413.560000000149,0.2,1.2,1327.0800000000745,1479.0,332.45999999977647,0.2,-70.14999999975208,0.9333333333333333,1768.300000000248,-571.3100000003357,0.0,0.26734836285013974,-62.173194805192495,0.018181818181818188,1382.391666666915,1.6,0.4666666666666666,1904.5083333336129,522.1166666666977,1295.8233333334947,2.0,0.35666666666666663,1776.9966666669275,481.17333333343265,2345.199999999255,0.2,0.01818181818181818,1349.7000000001017,1882.7636363640088,533.0636363639073,2345.199999999255,2052.800000000745,-292.3999999985099,2345.199999999255,11.0,0.4074074074074074,1.0,0.02040816326530612,962.80833333234,-0.44848484848484843,1049.3766666657602,-0.33848484848484844,170.03636363673627,-825.4636363624172,131.66649350624084,1199.833333334575,0.0,187.74999999968958,1.0,-100.36666666809458,1.0,490.0319999999553,0.31999999999999995,35.914000000022384,-0.2
Cbkx2NHyF3NrebzXGqNgSfiWent1,1316.841997402245,0.447213595499958,2434.0166666656733,1804.7166666686535,629.2999999970198,0.0,0.5,-0.5,1333.2099999984107,554.75388100447,967.61428571386,259.73341658045047,1053.6799999982118,0.0,1.0,1053.6799999982118,2968.5599999994038,2049.96666666766,0.0,-358.8999999985102,0.9333333333333333,1468.7666666646799,-621.8799999982123,0.0,0.26163390521705443,-46.23285714292098,0.0,1053.6799999982118,1.0,0.4666666666666666,2968.5599999994038,1914.880000001192,1053.6799999982118,1.0,0.22333333333333333,2968.5599999994038,1914.880000001192,,0.0,0.0,1470.5,2469.1571428541624,998.6571428541627,,,,1553.3999999910593,7.0,0.30434782608695654,1.0,0.020833333333333332,,-0.4666666666666666,,-0.22333333333333333,,,365.5957142845507,1772.3666666696467,0.0,3378.200000005464,0.5,860.533333328863,0.0,492.45466666718323,0.08,-421.1179999998211,-0.06
Co587hoelyeANqFX7AYvuVQW0lZ2,1239.144593624983,0.5477225575051662,611.2166666587193,1416.0333333313465,-804.8166666726272,0.5,1.0,-0.5,1127.6633333245913,582.2581680465754,917.993383454918,267.5799547059655,730.4199999928475,0.2,1.2,727.4399999976158,1838.0599999785422,960.8533333182335,0.2,429.3499999940396,0.9333333333333333,1060.1933333277702,-451.1900000035765,0.0,0.27126944174561185,-14.482127820510286,0.06315789473684211,1128.4125000014901,1.0,0.4,1563.2124999910593,434.79999998956913,1125.5299999952317,1.4,0.2866666666666666,1710.1899999856948,584.6599999904632,1148.7000000178814,0.4,0.021052631578947368,1227.699999988079,1759.012499988079,531.3125,1460.7833333412807,1580.4166666666667,119.63333332538605,1828.7857142857142,8.0,0.3333333333333333,7.0,0.1206896551724138,20.287500016391277,-0.37894736842105264,23.170000022649674,-0.26561403508771925,-178.59583332141233,-411.67916667461395,209.66994986967336,-123.83333335320185,0.0,73.43333331743872,1.0,1953.816666672627,0.5,266.0733333349227,0.16,-178.8119999969006,-0.14
CtJe4bZZnYUBNrcPk00d3YQFSGp2,1271.7155956947404,0.44721359549995804,1517.099999999938,361.84999999986036,1155.2500000000778,0.5,1.0,-0.5,1750.8666666665813,750.0064759737068,1354.4314285714445,530.7746854042201,1135.8199999998324,0.2,1.2,1106.079999999795,1913.3400000000372,868.7666666666357,0.2,854.8142857142744,0.8,1589.2400000000061,163.6600000000556,0.0,0.3862467964431296,-162.1028571428563,0.0,1174.899999999936,2.0,0.4866666666666667,2187.0499999999884,1012.1500000000524,1139.9399999998743,2.2,0.31650793650793646,2083.619999999972,943.6800000000978,,0.0,0.0,1575.5642857142125,1686.6357142857075,111.07142857149506,,,,2758.9499999999534,14.0,0.4375,2.0,0.041666666666666664,,-0.4866666666666667,,-0.31650793650793646,,,396.4352380951368,-83.86666666669771,1.0,104.23333333316265,1.0,1774.7166666666358,0.5,881.8026666665946,0.39999999999999997,43.08600000002417,-0.18000000000000002
DAKDKPH698P12JfTbbjemLI6PIH2,480.42453067735676,0.44721359549995804,391.9833333094915,496.8166666626931,-104.83333335320157,0.0,0.0,0.0,1243.0200000007947,194.5099324938679,917.0930158684178,205.6500324339907,1190.160000002384,0.2,1.2,1111.3600000023841,1594.499999988079,668.0399999896684,0.2,264.24999999999983,0.8666666666666668,1133.2666666666667,-442.6099999964241,0.0,0.21568032795909148,-22.797202566804252,0.033333333333333326,1225.5,0.8,0.4,1429.574999988079,204.07499998807913,1271.3,1.2,0.25,1585.7899999916553,314.48999999165534,752.7999999523163,0.2,0.01111111111111111,1213.2714285765376,1635.399999993188,422.1285714166505,1403.5999999841054,1649.1000000039737,245.50000001986817,3186.7874999940395,7.0,0.2916666666666667,8.0,0.12903225806451613,-472.7000000476837,-0.3888888888888889,-518.5000000476837,-0.2388888888888889,13.700000010785743,-176.62857139678235,325.9269841323769,-36.79999997218454,1.0,408.816666652759,0.0,479.9833333194256,0.0,193.07600000063576,0.12000000000000002,-95.24199999928479,-0.08000000000000004
DPvStUYSmohmXwFwaKRqHv89R3k1,1121.6487473461839,0.0,2149.449999988079,1252.4333333571751,897.016666630904,0.0,0.0,0.0,1860.133333325386,0.0,1269.508571430615,428.15982445460577,2624.9200000047686,0.4,7.0,2121.0799999952314,2608.0599999904634,1462.8800000031788,6.0,,1.0,2271.9333333333334,-867.2599999904636,0.0,0.3164564177120644,-81.67000000817418,0.0,1860.133333325386,0.6,0.3,2919.0999999841056,1058.9666666587193,1860.133333325386,0.6,0.15,2919.0999999841056,1058.9666666587193,,0.0,0.0,1860.133333325386,2919.0999999841056,1058.9666666587193,,,,,3.0,0.16666666666666666,0.0,0.0,,-0.3,,-0.15,,,590.6247618947712,829.5333333015442,0.0,1230.616666674614,0.0,2171.26666667064,0.0,660.4200000222523,0.0,-253.85799998760228,0.0
DaRehVxIOhXtEtUExdgvUl0mKcx2,550.1649809978318,0.5773502691896257,894.6000000437103,1081.166666696469,-186.56666665275873,0.5,0.5,0.0,2092.953947364369,992.020627670787,1547.7476190470516,415.3223901006715,1567.574999988079,0.0,1.0,1567.574999988079,2301.7750000208616,987.8833333700896,0.0,86.60474983209969,0.805921052631579,1815.0333333346578,-850.3833333452548,0.0,0.25359512531484785,-69.77261905443088,0.0,1432.6624999940395,1.25,0.4583333333333333,2484.2250000163913,1051.5625000223517,1688.4264705790315,9.5,0.3659282700421941,2363.7095588283505,675.2830882493188,,0.0,0.0,2088.88032786768,2068.462295083726,-20.41803278395387,,,,2257.433333337307,61.0,0.6630434782608695,3.0,0.08333333333333333,,-0.4583333333333333,,-0.3659282700421941,,,545.2063283173175,1147.5000000397365,1.0,1283.4333333770437,0.0,237.16666668653488,1.0,665.3300000174179,0.3666666666666666,-315.33333333896275,-0.1333333333333333
Df83JuPuJkXqTGbENhM2gw5SJM43,157.11971833259076,0.5477225575051662,140.85000000005437,22.299999999968918,118.55000000008545,0.0,1.0,-1.0,1199.6766666666838,212.59173208491407,1232.7014996767857,394.2709170798609,1101.2000000000467,0.2,1.2,1124.3800000000278,1969.7400000000373,483.9200000000495,0.2,118.99999999999983,0.8333333333333334,1556.793333333296,-440.7800000000283,0.0,0.29610131058602407,13.760991704364026,0.03891402714932126,1299.9500000000407,1.0,0.39999999999999997,1732.9624999999942,433.0124999999534,1192.1000000000233,1.2,0.24333333333333332,1961.3100000000327,769.2100000000094,1369.5999999999767,0.4,0.02714932126696833,1231.4750000000058,1904.8624999999884,673.3874999999825,1774.266666666682,2161.533333333364,387.26666666668217,1932.4000000000233,8.0,0.32,4.0,0.06349206349206349,69.64999999993597,-0.3728506787330316,177.4999999999534,-0.21618401206636498,256.67083333337587,-286.12083333330037,-33.02483301010193,-20.700000000031082,1.0,-47.96666666671331,0.5,211.1166666667366,0.5,-92.08000000001556,0.16,-150.5440000000084,-0.14
DxSidjznjVSNDJuDqqGgxpMEGtw1,701.9058458353904,0.447213595499958,82.54999999205279,461.71666669845615,-379.16666670640336,0.0,0.5,-0.5,1676.6333333333337,195.44493354516868,1577.8428571428572,278.45289085088007,1576.6199999809264,0.2,1.4,1530.2,2194.3800000190736,631.4400000254316,0.4,-116.04999995231658,0.8666666666666668,1802.660000006358,-298.18999998569535,0.0,0.17720621737396614,-45.72642857006606,0.0,1571.6749999523163,0.8,0.36666666666666664,2106.25,534.575000047684,1530.2,1.0,0.22333333333333333,2194.3800000190736,664.1800000190735,,0.0,0.0,1709.866666674614,2238.8333333333335,528.9666666587194,,,,,6.0,0.2608695652173913,0.0,0.0,,-0.36666666666666664,,-0.22333333333333333,,,98.79047619047651,1025.266666650772,0.0,628.983333428701,0.5,-84.71666673819209,0.0,207.97600001970937,0.08,-41.084000005722096,-0.06
DzB19GqCB7fyrlEPexogWkjFzEx2,560.1777934506786,0.5477225575051662,105.11666667461384,351.5000000000001,-246.38333332538627,1.0,0.5,0.5,1660.787499954303,118.41718742288586,1642.8327472466688,480.5132362651413,1669.7599999427796,0.6,2.0,1728.6599999427795,1926.2,405.95999997456863,1.0,-70.89999997615847,0.7916666666666667,1661.6933333396912,-204.75000000000045,0.0,0.2928555265529444,-33.12989010850148,0.04615384615384614,1789.6999999284744,0.6,0.2333333333333333,1953.7500000596046,164.0500001311301,1682.9999999701977,1.2,0.23666666666666666,2035.050000011921,352.05000004172325,1729.4499999284744,0.4,0.03076923076923077,1720.0333333015442,1964.2000000079472,244.1666667064031,1786.6666665871937,2441.3666666348777,654.7000000476838,3047.1285714081355,6.0,0.2608695652173913,7.0,0.125,-60.25,-0.20256410256410254,46.44999995827675,-0.2058974358974359,477.16666662693046,410.5333333412807,17.95475270763427,-139.5333333810172,0.0,637.6499999761581,0.5,-181.0333333015442,1.0,106.87999997456875,0.27999999999999997,12.213999996185365,-0.07999999999999999
EEodWwGh0wWq5f8JmzfKvq0lyeu1,1648.915242751372,0.5477225575051662,1026.4999999999611,-70.83333333341096,1097.3333333333721,0.5,1.0,-0.5,1234.1333333332866,728.8567326301296,894.6671428571356,189.0697548905022,774.8,0.4,1.4,823.4,2291.7999999999533,1388.799999999907,0.4,563.757142857104,0.8333333333333334,1946.3333333333333,-1668.2999999999774,0.0,0.2119700298994537,-17.51549803137514,0.0425,1020.4166666666084,1.2,0.36,3481.0833333333335,2460.6666666667247,1098.4499999999418,2.0,0.3222222222222222,3531.0499999999533,2432.6000000000117,1103.0,0.2,0.013333333333333332,1228.3636363636363,3269.1818181817757,2040.8181818181395,1030.6666666666667,1019.9999999998448,-10.666666666821888,1030.6666666666667,11.0,0.3793103448275862,3.0,0.04477611940298507,82.58333333339158,-0.3466666666666667,4.550000000058162,-0.3088888888888889,-2249.181818181931,-2051.4848484849613,339.46619047615104,3312.6666666666665,0.0,-188.50000000003882,1.0,1144.166666666589,0.5,954.6799999999346,0.31999999999999995,-125.5000000000045,-0.14
EUhcW9kURScie1DwGPHqmNqotJB2,531.6542495681937,0.5773502691896258,506.9666666984558,-112.56666684150696,619.5333335399628,0.0,1.0,-1.0,2210.2049501796882,933.0242435673402,1990.2186268502464,706.4488805911196,1867.8333333333337,0.0,1.0,1867.8333333333337,1596.966666618983,-52.266666677263025,0.0,-21.9136924490615,0.8220689655172414,2494.1444444391464,-641.2166666984562,0.0,0.34092086801335,62.380160091969564,0.15014367816091956,1715.6416666309037,1.6666666666666667,0.47222222222222215,2367.1333332657814,651.4916666348776,2247.390767982972,12.0,0.5342261904761905,2556.7500408204164,309.35927283744417,1735.4250000417233,1.6666666666666667,0.09482758620689656,2394.780952379817,2361.7547618888675,-33.02619049094973,2269.344444460339,1944.5444444550408,-324.8000000052983,2269.344444460339,42.0,0.6363636363636364,9.0,0.14516129032258066,19.783333410819523,-0.3773946360153256,-511.96576794124894,-0.4393986042692939,-417.21031743382673,-291.77380951434856,219.9863233294418,-112.56666684150696,1.0,506.9666666984558,0.0,-551.1999998887379,1.0,484.69999998940364,0.5333333333333334,183.6399999936422,-0.10000000000000002
EmfmKFDgWJdW47a6CNTNjnbYaPh2,1475.4196957654412,0.447213595499958,1292.6833332777023,1552.9500000079474,-260.2666667302451,0.0,0.5,-0.5,1836.5229166671634,769.3116267639616,1420.5704761902493,480.1748936872564,2227.2599999904633,0.2,3.0,1868.160000014305,3563.920000052452,2079.460000038147,2.0,-579.1749999940397,0.875,2345.4733333349227,-804.5800000071531,0.0,0.33378024898699515,-31.033532467755332,0.03809523809523809,2044.6166666547458,0.8,0.3,2925.7500000198684,881.1333333651224,1778.5374999791384,1.0,0.1952380952380952,3221.5125000327826,1442.9750000536442,2154.649999976158,0.8,0.03809523809523809,2006.9857142993383,3371.0714286225184,1364.0857143231801,2154.649999976158,2272.7499999701977,118.09999999403942,2154.649999976158,7.0,0.2916666666666667,4.0,0.06779661016949153,110.03333332141233,-0.2619047619047619,376.11249999701977,-0.1571428571428571,-1098.3214286523207,-1245.9857143291406,415.95244047691403,2360.933333476385,0.0,1343.5499999523163,0.0,1502.0833333333335,0.5,568.4799999952317,0.12000000000000002,-193.2899999976158,-0.06000000000000001
EoToosG69XMp4LTYdB6sB9WTrv22,514.3893350489985,0.0,640.2000002066294,119.8000001907348,520.4000000158946,0.0,0.0,0.0,1083.4666668574016,209.4412167088567,1139.9657142502922,307.2699417639008,2846.9000000953674,1.0,3.0,1318.0,1970.7999997138977,1012.8999999364218,2.0,201.449999809265,0.33333333333333337,2027.4933333396912,-703.819999980927,0.0,0.2573801866801129,-41.178571438789284,0.0,,0.0,0.0,,,1318.0,0.2,0.03333333333333333,1970.7999997138977,652.7999997138977,,0.0,0.0,1318.0,1970.7999997138977,652.7999997138977,,,,5400.800000190735,1.0,0.05555555555555555,2.0,0.0425531914893617,,0.0,,-0.03333333333333333,,,-56.49904739289059,16.066666762034174,0.0,60.11666695276887,0.0,699.8833334445953,0.0,335.265333404541,0.04,65.49199996948242,-0.020000000000000004
Fz7EUjZCLuUBxLDUVtN6djaBTy42,752.2065417454612,0.4472135954999579,-519.7499999999998,480.2833333611487,-1000.0333333611485,1.0,0.5,0.5,1657.9199999849,173.412175788002,1699.117142866339,335.5416746706457,1632.839999985695,0.2,1.2,1661.2399999856948,1885.3600000143051,186.12666666507735,0.2,-48.9999999403954,0.9,1944.9400000095368,54.749999999999716,0.0,0.19394081990556042,-7.244406593369862,0.01428571428571428,1699.6749999870856,1.6,0.5166666666666666,1962.2458333522081,262.57083336512255,1672.1199999849,1.8,0.35,1911.4166666865349,239.29666670163488,1244.5,0.2,0.014285714285714285,1699.4333333306843,1826.6111111243565,127.17777779367248,1244.5,1146.9000000953674,-97.59999990463257,2953.3400000333786,9.0,0.36,5.0,0.0847457627118644,-455.1749999870856,-0.5023809523809524,-427.6199999849,-0.3357142857142857,-679.7111110289891,-224.77777769830504,-41.19714288143905,863.3666665554047,1.0,-11.68333329757047,0.5,-27.78333334128058,1.0,166.0626666593553,0.2,-18.029999999999987,-0.17999999999999997
G1Ff3XYUZMRsPafyEQ80ussnVlf1,653.6200363920614,0.4472135954999579,-34.66666670640308,-109.88333332538616,75.21666661898308,1.0,1.0,0.0,1356.9511999885242,412.3829868729939,1604.9766666867904,482.9206217534378,1074.499999976158,0.6,1.6,1045.1,2031.9199999809266,755.659999982516,0.6,207.40387181526566,0.6973333333333334,1849.2933333237968,-213.8899999856952,0.0,0.2940088355004925,-70.97098292028122,0.09166666666666667,1211.3499999940395,0.6,0.2333333333333333,2023.4249999523163,812.0749999582766,1278.2986666615805,4.0,0.2804761904761905,2081.3399999841054,803.0413333225249,1840.4333333174388,1.8,0.075,1769.4559999895096,1948.695999994278,179.24000000476838,1899.6090908917513,1891.7181818268516,-7.890909064899791,1814.6999999915852,25.0,0.49019607843137253,17.0,0.22077922077922077,629.0833333233993,-0.15833333333333333,562.1346666558584,-0.20547619047619048,-56.97781816742645,-187.13090906966818,-248.0254666982662,1136.1999999284744,0.0,144.71666663885128,1.0,-289.2666666706405,1.0,421.4119999901453,0.36,79.40599999904632,-0.12000000000000001
G9VruXninjUdE9czK2DambZl5li2,492.51923820303045,0.5477225575051662,51.16666666662786,825.0000000001553,-773.8333333335274,0.5,0.5,0.0,1394.300000000008,460.67212805774545,1251.8696428571513,404.1354535083486,1021.5999999999534,0.0,1.0,1021.5999999999534,1639.4000000000465,363.800000000031,0.0,16.420579420593576,0.8666666666666668,1669.33333333338,-313.3000000000235,0.0,0.309470749266083,-19.57037815124628,0.025,1437.4999999999534,1.4,0.5,1605.4000000000233,167.90000000006984,1396.8833333333064,2.2,0.29888888888888887,1622.4333333333643,225.55000000005816,2192.0,0.2,0.0125,1665.7647058823393,1918.8235294117785,253.05882352943917,1675.5,2775.5,1100.0,3052.666666666628,17.0,0.4473684210526316,6.0,0.09836065573770492,754.5000000000466,-0.4875,795.1166666666936,-0.28638888888888886,856.6764705882215,846.9411764705608,142.43035714285656,66.6666666665891,1.0,610.8333333334498,0.5,265.3333333333333,0.5,393.6399999999938,0.31999999999999995,-85.16000000002792,-0.05999999999999998
GDZGRW51kbWtAdUIHCtEd8sAtqY2,412.41484408635273,0.5477225575051662,662.4833333492281,-90.98333319028245,753.4666665395106,0.5,0.5,0.0,1868.4979999987286,477.70311575211053,1694.5542856829506,318.169316836818,1561.9,0.2,1.4,1568.4,2040.1599999904633,333.0800000508626,0.4,579.5800000190735,0.9199999999999999,1837.55333331426,-443.7200000047686,0.0,0.1881072342466905,-34.68714287281023,0.0,1936.5874999960265,1.6,0.5166666666666666,2530.6374999682107,594.0499999721843,1829.2400000015896,2.0,0.36,2434.9599999745687,605.719999972979,,0.0,0.0,1926.7545454502106,2324.6999999826603,397.9454545324499,,,,2537.8666667143502,11.0,0.39285714285714285,7.0,0.12727272727272726,,-0.5166666666666666,,-0.36,,,173.94371431577792,332.39999993642164,1.0,127.5166667302451,0.5,443.9833334287006,0.5,232.14000005086254,0.27999999999999997,-94.49000000000005,-0.14
GE4hogtdLdTFbNasENgtm6SO3hC3,210.62967158115197,0.44721359549995804,-75.23333331942547,164.8999999960264,-240.13333331545186,0.0,0.0,0.0,2016.1888888875644,140.8968587844225,1574.394285713775,363.770773652857,2521.839999997616,0.4,3.5,2162.39999999851,1577.3999999985099,-125.1249999975164,2.5,-95.84999999403998,1.0,1863.4133333345253,-402.26999999880843,0.0,0.23084104284458223,-29.996428571428442,0.0,2126.4749999940395,0.6,0.2,1810.6750000044703,-315.7999999895692,2126.4749999940395,0.6,0.11666666666666665,1810.6750000044703,-315.7999999895692,,0.0,0.0,1983.3,1820.2200000047683,-163.07999999523162,,,,4281.34999999404,5.0,0.25,2.0,0.0425531914893617,,-0.2,,-0.11666666666666665,,,441.7946031737895,141.13333332538605,1.0,18.616666669646975,0.0,71.05000000695395,0.0,-14.254666662613493,0.08,-22.928000001907346,-0.06
GEwkBw3YHaNp3TCh9YS9PKVfavz1,1064.8072933574606,0.5477225575051662,35.53333329161012,1775.7666666309037,-1740.2333333392935,1.0,0.0,1.0,1095.9633333285649,108.71569577752037,1033.4657142826488,269.7137398065348,1066.3400000095367,0.4,1.4,1018.7599999904633,3330.9199999809266,2299.9799999753636,0.4,78.69999998807877,0.8,1974.1733333230015,-1282.8800000011927,0.0,0.25425797875054845,-48.50142856921457,0.0,1323.1888888809415,1.0,0.35,2573.922222190433,1250.7333333094916,1072.1733333190282,1.4,0.27999999999999997,3426.7733333190276,2354.6,,0.0,0.0,1125.5714285543986,3051.99999998297,1926.4285714285713,,,,2183.3250000029802,7.0,0.2916666666666667,4.0,0.07547169811320754,,-0.35,,-0.27999999999999997,,,62.49761904591605,-143.5000000397364,1.0,845.0333333114783,0.5,966.2666666110357,0.5,581.7519999829927,0.16,-232.73999999403958,-0.14
HSggdq91WiQp16bOj7V3dABkcgk2,629.6422178456723,0.44721359549995804,243.08333329359675,481.33333331346523,-238.25000001986848,0.0,0.0,0.0,1203.1249999582767,216.6245369602164,1144.9987499920385,606.971935549374,1041.7199999570846,0.2,1.4,1159.4199999809266,1885.8599999666214,583.6799999793371,0.4,204.5700000166893,0.9,1572.039999985695,-411.6299999833112,0.0,0.5140507027019374,68.55279564281247,0.03068181818181819,1241.6249999552965,1.0,0.4333333333333333,2072.9124999791384,831.2875000238419,1267.9599999785423,1.2,0.25857142857142856,1911.589999973774,643.6299999952316,732.6000000238419,0.2,0.01818181818181818,1408.314285687038,2249.6857142618724,841.3714285748346,1911.1000000238419,1537.5999999642372,-373.50000005960464,2355.8333333333335,7.0,0.2916666666666667,6.0,0.09230769230769231,-509.02499993145466,-0.4151515151515151,-535.3599999547005,-0.24038961038961038,-712.0857142976351,-1214.8714286344393,58.12624996623822,975.3666666348774,1.0,42.54999997218431,0.0,681.8666666348777,0.0,130.43199999650307,0.12000000000000002,-131.11399999380117,-0.06000000000000001
HbydnnT1hUP3WagAy2TJAc6GqVs2,750.8640509932641,0.0,516.08333337307,54.116666634877674,461.9666667381923,0.0,0.0,0.0,2084.54444442855,777.935622418071,1708.7628571442197,681.4978511844924,2471.9199999809266,0.6,1.6666666666666667,2047.300000031789,2936.9000000158944,1476.6888888941874,0.6666666666666666,-1249.6999999284749,0.7777777777777778,1937.8066666444142,-393.2599999904636,0.0,0.3818211876675177,-116.03857143436146,0.0,1183.7999999523165,0.2,0.1,1317.0,133.2000000476835,2254.7000000476837,0.4,0.08333333333333333,3053.75,799.0499999523162,,0.0,0.0,2047.300000031789,2936.9000000158944,889.5999999841055,,,,2603.8499999046326,3.0,0.15,2.0,0.0425531914893617,,-0.1,,-0.08333333333333333,,,375.78158728433027,-231.2000002066295,0.0,-139.61666663487745,0.0,709.8166666428251,0.0,487.79600001335155,0.04,36.01000000953672,-0.020000000000000004
HyQM2xKwwuVfqidmRYF6TiRk90C2,1030.095569843462,0.5477225575051662,908.1666666716335,-248.58333333333337,1156.7500000049668,0.5,0.5,0.0,1117.1666666592162,378.09964957910313,947.4863492049868,311.71083795864695,1006.0399999946355,0.6,3.0,1036.1999999940394,2346.819999998808,1396.9600000023843,2.0,547.3649999991059,0.7291666666666667,1475.6333333313464,-398.4599999994042,0.0,0.3262386429600307,13.132074303105872,0.022222222222222233,799.3499999940395,0.4,0.2,2340.14999999851,1540.8000000044701,1076.3624999932945,1.2,0.2138095238095238,2203.424999995157,1127.0625000018624,1366.5,0.2,0.01111111111111111,1363.0714285650424,2136.2285714234627,773.1571428584201,1819.89999999851,1778.2000000104308,-41.69999998807924,2154.63333333532,7.0,0.28,3.0,0.05172413793103448,567.1500000059605,-0.1888888888888889,290.1375000067055,-0.2026984126984127,-358.02857141303184,-814.8571428464993,169.68031745422934,715.5333333263794,0.0,-284.1666666716337,1.0,943.7500000099337,0.0,368.2760000008345,0.2,-78.89999999940402,-0.12000000000000002
IaTJhUGICmO9xcL3605RW8QHneN2,594.3298576245948,0.5477225575051662,772.8500000039736,1149.766666650772,-376.9166666467985,1.0,0.5,0.5,1218.1899999996026,548.0544094915861,1070.638947370514,405.1929177772511,984.2600000023842,0.0,1.0,984.2600000023842,1801.5799999952317,920.2733333269755,0.0,-160.30000000447058,0.9333333333333333,1310.5866666654747,-269.92999999821217,0.0,0.36476797075800554,-16.719610304777152,0.042105263157894736,1019.9800000041723,1.4,0.5,1847.8499999940395,827.8699999898672,1024.410000002384,1.6,0.30333333333333334,1781.9599999934435,757.5499999910593,1871.5599999964238,1.0,0.02631578947368421,1223.3199999988078,1573.0999999970197,349.77999999821185,1976.4874999970198,1334.4625000022352,-642.0249999947847,1954.3,10.0,0.38461538461538464,10.0,0.12195121951219512,851.5799999922515,-0.4736842105263158,847.1499999940397,-0.27701754385964916,-238.63749999478455,-991.8049999929965,147.55105262908864,756.133333325386,0.0,1511.266666660706,1.0,411.34999999403954,0.5,459.1053333298365,0.2,-171.1219999998808,-0.1600000000000001
JOBWLirr6KYf3GXJ3jPFKmd48S93,598.6940024312327,0.5477225575051662,557.0,343.3333333532015,213.6666666467985,1.0,0.5,0.5,1262.6900000035762,186.74690090293782,1316.6457142795834,326.26404102357054,1130.6400000095368,0.0,1.0,1130.6400000095368,1900.9,632.5066666762034,0.0,,1.0,1512.2866666634877,-357.1400000035768,0.0,0.2436201196588134,-0.8557142866508514,0.0,1134.4000000059605,1.2,0.4666666666666667,2065.5800000011923,931.1799999952316,1134.4000000059605,1.2,0.26,2065.5800000011923,931.1799999952316,,0.0,0.0,1313.4250000044703,1898.6499999985099,585.2249999940395,,,,3844.1666666666665,8.0,0.34782608695652173,3.0,0.057692307692307696,,-0.4666666666666667,,-0.26,,,-53.95571427600726,1361.866666674614,0.0,334.15000000596046,0.5,566.183333347241,1.0,171.28266667286553,0.12,-151.8899999988079,-0.11999999999999998
Jp6aXC9KLjcFZBaQdZl4i9dUscl1,563.4125188849397,0.0,478.9666666587194,-125.48333331942581,604.4499999781452,0.0,0.0,0.0,,,1174.9628571408134,323.37308388334907,2236.4599999785423,1.0,,,,,,,,1657.5199999968208,-336.3999999880797,0.0,0.27225959370620867,-2.312142855354632,0.0,,0.0,0.0,,,,0.0,0.0,,,,0.0,0.0,,,,,,,,0.0,0.0,0.0,0.0,,0.0,,0.0,,,,-707.7333333094915,0.0,67.53333335121471,0.0,285.9499999880789,0.0,54.35466666380563,0.0,-66.95600000143051,0.0
JvrZiMHtAfP6gvQtlevYWafKy0z2,973.5111421302969,0.5477225575051662,252.93333339691173,105.08333349227905,147.84999990463268,0.0,1.0,-1.0,1965.3939999389647,476.79237311181606,1646.6857142584663,283.5328584942999,1736.6800001144409,0.2,1.4,1717.739999961853,2443.8,932.7733333587646,0.4,374.10999984741215,0.9199999999999999,2018.6000001271568,-234.33000011444128,0.0,0.16848238949100083,-53.934285688400166,0.0,1854.875,0.8,0.29999999999999993,2328.1500000953674,473.27500009536743,1891.4599999427796,1.2,0.21999999999999997,2384.6800000190733,493.22000007629396,,0.0,0.0,2104.0999999046326,2338.4300000190733,234.3300001144409,,,,3487.5,10.0,0.37037037037037035,2.0,0.041666666666666664,,-0.29999999999999993,,-0.21999999999999997,,,318.7082856804984,2309.333333015442,1.0,87.09999974568689,0.5,270.9166671435039,0.5,504.6773333740234,0.24,-57.41800003051765,-0.12000000000000002
K26uNuY0VNPjJNF26wEx3bFg0kr2,958.1212334565058,0.5477225575051662,1090.5666666665738,141.91666666666669,948.6499999999071,0.5,0.5,0.0,1039.7649999999908,104.45569039278753,1050.0685714285953,180.23345827777777,949.4800000000745,0.4,1.6,1035.9,1965.1,941.5000000000002,0.6,288.28999999994403,0.8,1385.6266666666604,-471.33999999999116,0.0,0.17391069766458306,6.89714285713696,0.0,991.9666666666357,0.8,0.3333333333333333,2276.2666666666046,1284.2999999999688,1091.3499999999535,1.4,0.27714285714285714,1996.5099999999627,905.1600000000093,,0.0,0.0,1151.5571428571295,1860.1428571427907,708.5857142856611,,,,,7.0,0.28,0.0,0.0,,-0.3333333333333333,,-0.27714285714285714,,,-10.303571428604528,874.2333333332402,0.0,109.46666666655818,0.5,1123.0166666666823,0.5,264.15600000001507,0.16,-157.60199999998338,-0.10000000000000003
K7ykiXe6CqQUKpEzs2nYrMTVuDA2,2275.6532810504023,0.5477225575051662,2300.3333333332166,1888.5000000000778,411.83333333313885,1.0,0.5,0.5,2045.8333333333412,1699.852305975484,1296.3428571428572,425.1334424016915,1005.6000000000465,0.2,1.2,998.6,3196.000000000058,1965.1666666667636,0.2,1181.0142857142473,0.9,1900.9999999999534,-682.499999999977,0.0,0.32437048532105045,9.192857142847247,0.0,970.5000000000582,0.8,0.3333333333333333,3196.000000000058,2225.5,1270.7,1.4,0.24428571428571427,4168.7000000000235,2898.000000000023,,0.0,0.0,2353.1,3285.2999999999765,716.4444444443927,,,,3992.75,11.0,0.39285714285714285,13.0,0.2,,-0.3333333333333333,,-0.24428571428571427,,,749.4904761904841,-744.6666666664339,0.0,3763.833333333333,0.5,424.9999999999611,1.0,818.3133333333448,0.27999999999999997,-270.53666666666163,-0.16000000000000006
KtKj6zUKc5Oogd2itg2jdwkchnf2,565.2784205835567,0.5477225575051662,215.7666666656733,178.2333333324642,37.5333333332091,1.0,0.0,1.0,1502.6749999998137,223.33967683750762,931.5371428568449,199.97949183036388,1422.139999999851,1.0,2.0,1344.75,2941.10000000149,1812.1166666671634,1.0,,0.5,1467.2600000003974,-342.59000000022377,0.0,0.19782510595452105,-4.742142856945888,0.0,,0.0,0.0,,,882.8000000007451,0.2,0.04,2063.800000000745,1181.0,,0.0,0.0,1344.75,2941.10000000149,1596.3500000014901,,,,1369.800000000745,2.0,0.10526315789473684,1.0,0.02127659574468085,,0.0,,-0.04,,,571.1378571429689,859.3333333345748,0.0,345.44999999925517,0.5,48.549999998882356,0.5,245.2226666661104,0.08,-136.74000000022352,-0.08
LSLmd8jENtONZFVkIpRDX665Bu73,1769.3821616796606,0.5477225575051662,1822.0999999443693,1109.066666563352,713.0333333810172,0.5,0.5,0.0,1463.9079999351502,341.47978863130595,1506.5927731141321,483.1246995727167,1369.4399999141692,0.0,1.0,1369.4399999141692,2390.0999999523165,1067.3399999141695,0.0,-12.499999999999977,0.96,2001.9933333079018,-591.8700000047686,0.0,0.3120432921188084,-64.55035714109735,0.04705882352941178,1386.4199999332427,1.4,0.5333333333333333,2605.3499999523165,1218.9300000190735,1386.4199999332427,1.4,0.285,2605.3499999523165,1218.9300000190735,2010.8500001430511,0.4,0.023529411764705882,1346.6499999284745,2338.2599999666213,991.610000038147,1902.7000001072884,3035.850000023842,1133.1499999165535,2508.2600000858306,10.0,0.38461538461538464,5.0,0.08928571428571429,624.4300002098084,-0.5098039215686274,624.4300002098084,-0.2614705882352941,697.5900000572205,141.53999987840655,-42.684773178981914,-525.6333334445953,1.0,2893.9833331902823,0.0,37.18333331743884,1.0,566.4999999237062,0.24,-228.07999999523162,-0.05999999999999997
Lhv9P8ZrkDSIB7BGwooAqfu8SGF3,1163.4639224869964,0.0,1251.7833333512144,404.06666666269297,847.7166666885214,0.0,0.0,0.0,1120.740000011921,41.538483364035166,1145.5285714234624,223.74255793984065,1108.6000000119209,0.0,1.0,1108.6000000119209,2433.060000014305,1287.2666666785876,0.0,-70.87000000476836,0.9199999999999999,1815.0666666785874,-830.8600000023849,0.0,0.1874593322425088,-32.71071428784295,0.0,1108.6000000119209,1.0,0.5,2433.060000014305,1324.4600000023843,1097.7200000107289,1.2,0.25,2629.960000014305,1532.2400000035764,,0.0,0.0,1153.4285714370865,2405.8285714387894,1252.400000001703,,,,2091.399999976158,7.0,0.2916666666666667,1.0,0.02127659574468085,,-0.5,,-0.25,,,-24.788571411541398,3124.633333365123,0.0,567.4333333174386,0.0,1088.4166666964688,0.0,497.178666674296,0.08,-154.13000000119212,-5.583445310674508e-18
LliUMEIsrCVZ88YFQfevan2Og4z1,372.3509980889525,0.5477225575051662,478.9000000000233,121.59999999997632,357.30000000004696,0.5,0.5,0.0,1043.0642424242656,123.99195998809451,965.4007518796728,289.39612507548503,907.1800000000279,0.4,1.4,908.4200000000186,1496.6600000000092,589.2266666667068,0.4,103.3604545454896,0.8424242424242424,1406.3333333333333,-742.2499999999769,0.0,0.27899730157819913,-17.050319207110903,0.08899521531100481,999.5666666667288,0.6,0.3,1668.4333333333486,668.8666666666198,998.060000000028,1.8,0.2547619047619048,1665.955999999996,667.8959999999681,1451.8333333332944,0.8,0.049760765550239235,1255.2636363636702,1846.4727272727018,591.2090909090316,1521.0285714285314,1296.471428571402,-224.5571428571296,1521.0285714285314,11.0,0.34375,7.0,0.1076923076923077,452.2666666665656,-0.25023923444976076,453.77333333326635,-0.20500113921166557,-550.0012987012999,-815.7662337661612,77.66349054459272,810.533333333442,0.0,67.96666666659678,1.0,532.5333333334029,0.0,166.246666666679,0.24,-98.11799999999347,-0.059999999999999984
M4Km1Q2P2oPliChDQkwl6k20FUI3,1631.1743242523803,0.5477225575051662,742.7499998410543,-216.96666669845587,959.7166665395102,0.0,1.0,-1.0,2118.8119999980927,681.2226702593955,1384.791598395034,453.7146085954879,1560.5200000762939,0.2,1.2,1550.360000038147,2582.949999809265,1310.0749997695289,0.2,830.1150000333786,0.8533333333333333,1868.7199999968211,-555.4749999642374,0.0,0.32700267024399526,-44.873394603462486,0.04785214785214784,1931.3250000476837,1.4,0.4333333333333333,2964.2416665156684,1032.9166664679847,2085.6800000190733,1.8,0.2833333333333333,2908.754166563352,498.129166563352,807.5,0.2,0.01818181818181818,2581.0200000286104,2539.822222179837,-260.06250005960464,1707.6333332061768,2524.433333237966,816.8000000317892,2649.033333301544,12.0,0.4,6.0,0.08333333333333333,-1123.8250000476837,-0.4151515151515151,-1278.1800000190733,-0.26515151515151514,-15.388888941870846,1076.862500091394,734.0204016030586,3624.833333015442,0.0,202.09999966621405,0.5,323.6833334763844,0.5,957.6126666895549,0.32,-217.33266661961883,-0.1
O61Eik2zvrSQLMNpFbTNEgjWwMr2,695.5502651360629,0.0,476.66666666418314,131.2500000012418,345.41666666294134,0.0,0.0,0.0,1512.9266666670642,147.98222401736356,1369.2742857145413,379.2554270934099,1336.3399999991059,0.4,1.8,1405.8199999988078,2107.740000000596,651.1666666671633,0.8,126.946666668107,0.6666666666666667,1649.8533333311475,-354.76000000014926,0.0,0.2816497120365414,57.63500000004264,0.0,1215.8666666671634,0.6,0.3,2092.4000000009933,876.53333333383,1501.920000000298,1.4,0.24761904761904763,2056.789999999106,554.8699999988079,,0.0,0.0,1584.642857142857,2024.428571427507,439.78571428464994,,,,2877.6749999988824,7.0,0.25,4.0,0.08,,-0.3,,-0.24761904761904763,,,143.6523809525229,1526.7000000004966,0.0,352.48333333308483,0.0,255.4333333323401,0.0,185.6626666653156,0.16,-110.11600000008939,-0.04000000000000005
OExlWyngGfPrScDYjaRcv5PIAet1,1165.8764105354853,0.0,1313.266666650772,682.8666667143505,630.3999999364216,0.0,0.0,0.0,1077.9555555846957,36.90236869246836,985.342857163293,179.6995693324066,2334.1200000286103,0.6,4.0,1084.9250000417233,2637.1749999821186,1698.3083332975707,3.0,-92.10000002384216,0.7777777777777778,1884.3799999952316,-1148.879999995232,0.0,0.1797567466328161,-25.51071428656572,0.0,1181.2000000476837,0.4,0.2,2864.5,1683.2999999523163,1035.4333333571751,0.6,0.13333333333333333,2796.5666666428247,1761.1333332856495,,0.0,0.0,1035.4333333571751,2796.5666666428247,1761.1333332856495,,,,5963.299999952316,3.0,0.15,1.0,0.021739130434782608,,-0.2,,-0.13333333333333333,,,92.61269842140268,-90.80000007152569,0.0,689.2666666507721,0.0,1306.8666667143505,0.0,329.77733332316086,0.04,-153.07200000047683,-0.020000000000000004
ORuVuFPU5idz3fMoXTGsbwToW2j2,458.7857381201874,0.44721359549995804,-33.36666639645898,826.516666730245,-859.883333126704,0.5,1.0,-0.5,1682.7280000416438,395.4471741892074,1530.017815149131,438.4396728666945,1382.660000038147,0.2,1.2,1376.080000114441,2204.5800000190734,748.7799999872843,0.2,107.65749999284745,0.9,1650.4333333969116,-424.68000001907365,0.0,0.2962502286654682,39.077528031433346,0.011764705882352944,1490.108333349228,1.2,0.31666666666666665,2031.833333412806,541.7250000635781,1576.4200000286103,2.0,0.29119047619047617,1992.366666698456,415.94666666984557,3304.800000190735,0.2,0.011764705882352941,1671.2937500178814,1926.5375000238419,255.2437500059605,3304.800000190735,2466.2999997138977,-838.5000004768372,3304.800000190735,16.0,0.48484848484848486,1.0,0.01818181818181818,1814.691666841507,-0.3049019607843137,1728.3800001621246,-0.2794257703081232,539.7624996900558,-1093.7437504827976,152.71018489251287,538.5999997456865,1.0,374.86666679382324,1.0,418.28333353996277,0.5,295.6479999987285,0.4800000000000001,-29.216000013351398,-0.22000000000000003
ORvIk1xRWIQmKuLVe6GXNouvAXx2,3624.1442420538906,0.44721359549995804,-468.1166666547458,4452.866666674614,-4920.98333332936,0.5,0.0,0.5,2288.962153838781,1135.6001265571022,1709.9601142915994,459.99537714726284,1444.2399999856948,0.2,1.4,1531.3599999666214,3323.0799999952314,1446.9866666793823,0.4,601.5387912136515,0.8430769230769231,2581.5433333198225,-1531.6750000119214,0.0,0.23881584774796422,40.20229176639576,0.06923076923076923,1569.4999999850988,1.0,0.4333333333333333,4148.212499991059,2578.7125000059605,1866.9173333271344,2.4,0.3175,4637.49399999857,2770.576666671435,3614.2000000476837,1.0,0.038461538461538464,2384.733333333333,4350.035714285715,2054.078571430274,3522.655555592643,3706.6375000178814,303.21249997615814,3522.655555592643,15.0,0.40540540540540543,9.0,0.140625,2044.7000000625849,-0.3948717948717948,1747.2826667205493,-0.27903846153846157,-643.3982142678333,-1750.866071454116,579.0020395471815,-161.86666659514094,0.0,3244.4500000476837,0.5,740.2999999721845,0.0,654.2186666965484,0.24,-405.02399999856954,-0.019999999999999987
P8mTl71XaYNvFMTCvlKpzzUdc9W2,1949.3230789882464,0.0,93.5666666924954,645.6500000059604,-552.0833333134649,1.0,1.0,0.0,1552.4120000052453,842.1482322431473,1069.4714285714285,182.2590353862641,1043.0399999976157,0.6,1.6,1123.8800000190736,2978.260000002384,1904.813333336512,0.6,-8.497142856177796,0.5933333333333334,1248.5600000023842,-199.33000000715288,0.0,0.1709507592113529,-1.6449999988078445,0.0,1438.7750000059605,0.6,0.18333333333333332,3974.125,2535.3499999940395,1224.8400000095367,1.4,0.21722222222222226,2868.190000003576,1643.3499999940395,,0.0,0.0,1840.7909091006625,2095.8363636406984,255.04545454003585,,,,,11.0,0.3142857142857143,0.0,0.0,,-0.18333333333333332,,-0.21722222222222226,,,482.9405714338168,4585.033333321412,1.0,33.40000001589448,1.0,705.8166666825613,1.0,590.1453333369889,0.36,-230.32800000667564,-0.13999999999999996
P9bS6GGJcIXivbMWo4ibJ5jgUPG2,1864.3615864352198,0.5477225575051662,224.6666666766008,624.1000000139077,-399.43333333730686,0.5,0.0,0.5,1472.2600000123184,626.1170108590018,1247.6314285704066,325.60918895352944,1235.160000014305,0.2,1.2,1079.7200000166893,2929.040000009537,1726.8400000055633,0.2,84.74999999999928,0.9,1568.2533333341282,-184.77000000476866,0.0,0.25849994180526414,-32.59499999880785,0.0,1472.1250000198681,1.2,0.45,2048.7833333561816,576.6583333363135,1394.5400000135105,1.4,0.29,2342.5066666801767,947.9666666666666,,0.0,0.0,1816.04285716159,2506.3142857296125,690.2714285680225,,,,,7.0,0.30434782608695654,0.0,0.0,,-0.45,,-0.29,,,224.62857144191184,4503.466666658719,1.0,748.8833333551884,0.0,99.88333333532012,0.5,452.47599999984106,0.12000000000000002,-199.68400000214578,-0.10000000000000005
PLreonkqaMeFc0UqxKUelH44UQu1,713.5652895889409,0.5477225575051662,12.399999991059303,958.4833333417773,-946.083333350718,0.5,0.5,0.0,1348.8106923119724,554.4567313196033,931.8961904758784,348.3761325187198,968.9600000023842,0.0,1.0,968.9600000023842,1368.7500000037253,493.7250000052154,0.0,4.821407523430163,0.7485714285714286,1163.1799999992052,-52.66999999731811,0.0,0.3447164249552181,-26.203857143276434,0.039999999999999994,993.9700000032783,1.4,0.5333333333333333,1413.330000001192,419.35999999791386,1075.6766666712363,2.6,0.2927310924369748,1426.0360000009337,350.35933332969745,1037.3000000044703,0.4,0.026666666666666665,1467.0000000037253,1553.231250002049,70.37999999821183,981.7666666706403,1019.7666666706403,38.0,1788.550000000745,17.0,0.4146341463414634,5.0,0.09090909090909091,43.33000000119205,-0.5066666666666667,-38.376666666765914,-0.26606442577030814,-533.4645833314086,-32.37999999821183,416.914501836094,45.53333334624779,1.0,1534.2333333442607,1.0,197.56666666517657,0.0,428.1890000010033,0.27999999999999997,-80.29700000132128,-0.05999999999999997
PXesLO51qlY7lJBrLdOAZiHmUR72,,,,,,,,,,,,,,,,,,,,,,,,,,,,,,,,,,,,,,,,,,,,,,,3594.16718750009,0.0,,70.0,0.546875,,,,,,,,,,,,,,,,,
PkpTH7pWpEOG9A86xSloOSozwTk2,587.3228924423073,0.7071067811865476,-746.4666664600372,84.13333352406835,-830.5999999841056,0.0,1.0,-1.0,2097.525833328565,791.0365794079935,3425.8813559119985,1801.210176949789,1851.4000000953674,0.5,2.0,2226.3000000715256,1722.9500000476837,-466.3166665633518,1.0,35.02618818120841,0.75,4685.466666618983,856.7999999523156,0.0,0.5257654862569786,23.21535187048642,0.47619047619047616,2781.899999976158,1.0,0.2,2072.4000000953674,-709.4999998807907,2102.717857130936,12.5,0.5333333333333333,2182.2831932857257,79.56533615478963,2744.4466666380563,16.0,0.25396825396825395,2271.924242409793,2159.2468749806285,-119.56875000149007,3565.5206896436625,3314.574999979564,-403.94814816227665,3549.9242424242425,33.0,0.7333333333333333,34.0,0.40963855421686746,-37.45333333810186,0.05396825396825394,641.7288095071203,-0.27936507936507937,1155.3281249989354,-284.3793981607866,-1328.3555225834334,,,-746.4666664600372,0.0,84.13333352406835,1.0,-86.81666661103552,0.7,112.32499996423715,-5.639299114077367e-17
QG6VXg7od2fHJ1SF9ZzYBqUa1FY2,304.11680504462066,0.44721359549995804,21.699999998013197,-44.40000000099326,66.09999999900646,0.5,1.0,-0.5,1160.5166666664184,370.69192521510394,938.6857142856079,212.89941841547187,996.5,0.6,1.6,1019.059999999404,1817.4799999989568,786.9133333322903,0.6,386.1833333335815,0.6666666666666667,1718.1066666657723,-571.430000000075,0.0,0.2166586522386523,34.607857142734794,0.0,1169.7000000001863,0.6,0.2,1365.8249999983236,196.12499999813735,1034.5599999997764,1.2,0.21333333333333332,1919.6899999987334,885.1299999989569,,0.0,0.0,1279.1333333328366,1947.0999999990065,667.96666666617,,,,1412.10000000149,9.0,0.32142857142857145,1.0,0.021739130434782608,,-0.2,,-0.21333333333333332,,,221.83095238081046,-53.4333333310982,1.0,7.866666664679826,0.5,-30.566666667659888,1.0,485.2093333326778,0.27999999999999997,-14.895999999940372,-0.21999999999999995
QbOEVCaZLUMOgltUdXm58oZOALv2,1748.0336288261644,0.5477225575051662,1669.683333327373,447.43333330750454,1222.2500000198684,0.0,1.0,-1.0,2048.9183333257834,788.1258687312411,1489.9240476158404,253.555388200891,1527.5599999904632,0.2,1.2,1562.539999985695,3360.2199999928475,1761.133333325386,0.2,-56.606806521037946,0.7833333333333334,1848.066666662693,-433.050000005961,0.0,0.16801529917897637,6.203136863956273,0.016666666666666673,2068.9624999910593,1.0,0.36666666666666664,3327.237499989569,1258.2749999985099,1772.899999986092,2.2,0.2604761904761904,2899.2799999952317,1126.3800000091394,1306.100000023842,0.2,0.016666666666666666,2035.9937499910593,2805.1250000037253,769.131250012666,1306.100000023842,1801.0999999642372,494.9999999403951,2757.2125000059605,16.0,0.43243243243243246,8.0,0.12698412698412698,-762.8624999672172,-0.35,-466.79999996225,-0.24380952380952375,-1004.0250000394881,-274.13125007227086,558.9942857099429,4189.633333345254,1.0,1761.0333333313465,0.5,356.08333330353094,0.5,693.0293333244324,0.27999999999999997,-309.1179999995231,-0.14
Qg9GDwQ9hBNkDLt50CNLd4NqRlX2,1939.3310008671579,0.447213595499958,2150.6666667461395,139.23333319028222,2011.4333335558572,0.0,0.5,-0.5,2394.9349999427795,969.4572661389278,1875.4285714217592,749.5105277699962,2292.1999999523164,0.0,1.0,2292.1999999523164,3527.4499999284744,1643.1583332816758,0.0,1480.8099999904628,0.95,2028.9399999459583,-1194.8499999344356,0.0,0.3806512044182072,-21.93714285748336,0.0,1955.6199999570847,1.2,0.5333333333333333,3616.0749999284744,1697.474999934435,2509.3199999570847,1.4,0.2871428571428571,3603.6624999046326,992.937499910593,,0.0,0.0,2884.974999964237,4020.171428510121,1023.5857142380306,,,,,8.0,0.3333333333333333,0.0,0.0,,-0.5333333333333333,,-0.2871428571428571,,,519.5064285210203,4143.5,0.0,1321.7833332618077,0.0,-214.4333333969114,0.5,463.2009999839464,0.12000000000000002,-330.4383333086967,-0.06000000000000001
QreA2rLiUhV3YHeMfuHMPdGbpJ53,777.5938183835636,0.447213595499958,490.58333341280627,-578.7833333015441,1069.3666667143502,0.0,0.5,-0.5,1095.2600000405312,80.06910050635183,1384.7092436886635,431.005877230855,1084.8400000572205,0.2,1.4,1107.4000000476838,1814.760000038147,331.22000006039946,0.4,15.836666655540355,0.8166666666666668,1653.0866666634877,-515.2899999856952,0.0,0.2999941273003987,27.16829831373126,0.011764705882352944,1046.6500000238418,1.6,0.4666666666666667,1595.570000064373,548.9200000405311,1105.0133333746594,2.2,0.34404761904761905,1956.0293333625796,851.01599998792,,0.0,0.0,1058.890909129923,1641.9636363983154,583.0727272683924,1613.4000000953674,1080.7000000476835,-532.700000047684,2118.500000023842,11.0,0.3793103448275862,10.0,0.15151515151515152,,-0.4666666666666667,,-0.34404761904761905,-561.2636363506319,-1115.7727273160763,-289.4492436481323,-273.90000001589465,0.0,-559.8333332935969,0.5,471.63333340485906,0.0,-57.279999958674104,0.28,72.23000000476837,-0.08000000000000003
Rc706mP0TSeIoIpMYH1SpRXjOxA2,1636.9085936853476,0.0,2626.283333301544,112.01666688919067,2514.2666664123535,0.0,0.0,0.0,2667.3999996185303,0.0,1502.5571428571427,340.6471503990705,2789.5400001525877,0.8,1.0,2667.3999996185303,5423.900000572205,4048.9333337148028,0.0,,1.0,2222.6666667302447,-876.9700001716619,0.0,0.22302577534852874,-32.83214289801448,0.0,2667.3999996185303,0.2,0.1,5423.900000572205,2756.5000009536743,2667.3999996185303,0.2,0.05,5423.900000572205,2756.5000009536743,,0.0,0.0,2667.3999996185303,5423.900000572205,2756.5000009536743,,,,,1.0,0.0625,0.0,0.0,,-0.1,,-0.05,,,1164.8428567613876,712.7999995549519,0.0,2058.5666669209795,0.0,679.7333332697551,0.0,422.2680001322427,0.0,-192.59999992370604,0.0
Rmd4rr2vGjOoLvdfYd4EdYyxK3m1,2457.1209114270464,0.5477225575051662,2743.516666849454,2733.566666682561,9.950000166893005,0.5,0.0,0.5,1632.4199999809266,812.6601867084767,1274.7099999802454,272.4146516749337,1235.7199999809266,0.4,1.4,932.7200000286102,4628.240000057221,3361.073333390554,0.4,941.3666666348772,0.8,3094.07333334287,-2036.6300000190745,0.0,0.2025045752641006,-9.737087909860866,0.01428571428571428,874.2666666507721,0.6,0.3,5017.6666667461395,4143.400000095367,997.3800000190735,1.2,0.2333333333333333,5156.040000057221,4158.660000038147,,0.0,0.0,1820.237500011921,4969.125000029802,3148.8875000178814,1353.0,3094.599999904633,1741.599999904633,4785.75,8.0,0.3076923076923077,3.0,0.05454545454545454,,-0.3,,-0.2333333333333333,-1874.5250001251693,-1407.2875001132484,357.71000000068125,-196.19999996821082,1.0,767.0666667222977,0.5,4710.016666809717,0.0,1311.6613333447774,0.2,-473.4540000295639,-0.14
Ru3Qf6pXZua1DfNkQdhbor6iJ403,2149.9655863654634,0.0,2903.5166666667596,1224.749999999845,1678.7666666669147,1.0,1.0,0.0,2376.4116666666387,1113.3758713132017,1775.3252380952454,1036.460691603872,1781.0599999999627,0.6,1.6,1622.799999999907,4713.419999999833,3274.659999999808,0.6,382.7433333333118,0.6833333333333333,2837.693333333265,-771.8699999999259,0.0,0.5454453394680867,-202.9038426949772,0.022222222222222233,2544.366666666542,0.8,0.18666666666666668,4434.800000000047,1890.4333333335042,2037.3266666665982,1.4,0.2276190476190476,4469.239999999851,2431.913333333253,1350.6999999997206,0.2,0.01111111111111111,2788.745454545387,3704.281818181742,915.5363636363552,1961.6999999997206,3170.5500000000466,1208.850000000326,1961.6999999997206,11.0,0.36666666666666664,2.0,0.03571428571428571,-1193.6666666668216,-0.17555555555555558,-686.6266666668776,-0.2165079365079365,-533.7318181816954,293.3136363639708,601.0864285713933,-261.93333333342616,1.0,3666.4166666666665,1.0,461.84999999993795,1.0,1414.4359999999158,0.36,-254.24000000000933,-0.24000000000000002
SOhR7IO689NQCPQu56SjATO8FR92,1417.3218718174878,0.5477225575051662,2037.3999999995963,-162.49999999968952,2199.8999999992857,0.5,0.5,0.0,1428.859999999819,542.6668318897517,1226.5514285714498,337.18095053304125,1129.6999999996274,0.2,1.2,1025.7599999997765,2198.699999999814,936.5466666664927,0.2,125.79909090917323,0.8090909090909092,1828.7733333332465,-616.15999999987,0.0,0.2768989135979833,-1.206230769248124,0.01428571428571428,1195.6249999997672,1.0,0.39999999999999997,2189.86249999993,994.2375000001631,1434.4486666665039,3.2,0.3442857142857143,2186.396666666555,751.9480000000507,2225.2999999998137,0.2,0.014285714285714285,1591.2954545454122,1885.386363636279,294.0909090908667,2225.2999999998137,1100.0,-1125.2999999998137,2892.524999999907,22.0,0.5,4.0,0.07142857142857142,1029.6750000000466,-0.3857142857142857,790.8513333333099,-0.33,-785.3863636362789,-1419.3909090906805,202.30857142836908,-156.96666666679084,1.0,426.1500000002176,0.5,1448.7499999996894,0.5,294.1186666666343,0.36000000000000004,-70.20199999993667,-0.039999999999999994
SPCT9D90pRa1ihXS5jEw6vCmquI3,478.6695175243792,0.5477225575051662,581.7500000099342,-17.549999997019768,599.300000006954,0.5,0.5,0.0,932.3000000030512,274.4484028749115,879.7561904768148,214.40786914904442,721.7399999976158,0.2,1.4,730.3199999988079,1309.5400000095367,498.3533333440622,0.4,71.02357142823082,0.7976190476190477,916.1333333333334,-269.40999999642395,0.0,0.23353864430138369,-35.09714285667452,0.0,790.5124999992549,1.0,0.39999999999999997,1320.6625000089407,530.1500000096858,834.4233333354196,2.0,0.2890476190476191,1251.9500000079474,417.52666667252777,,0.0,0.0,974.6083333368102,1259.0500000044703,284.44166666766006,,,,4221.900000001255,12.0,0.375,21.0,0.21875,,-0.39999999999999997,,-0.2890476190476191,,,52.54380952623637,942.1666666766008,0.0,499.41666668156785,1.0,64.78333333134651,0.0,259.36933333953226,0.27999999999999997,-27.55399999916555,-0.06000000000000001
SpSfX0ZcfcPLdlOENlfdfvEPwru2,1382.913482470921,0.44721359549995804,370.1666666666473,786.6666666666279,-416.49999999998056,0.5,0.0,0.5,1596.8,463.2820661819871,1105.3428571428403,312.35338045282276,1181.4000000000233,0.2,1.4,1204.2000000000232,2471.9999999999536,1437.9999999999459,0.4,391.666666666647,0.8,1335.9999999999845,-360.1999999999888,0.0,0.2688504577871381,-27.01428571427897,0.0,1249.750000000029,0.8,0.35,2573.499999999942,1323.7499999999127,1369.1000000000117,1.2,0.2333333333333333,2178.8999999999533,809.7999999999417,,0.0,0.0,1616.0000000000146,2258.6249999999563,642.6249999999418,,,,4642.0,8.0,0.3076923076923077,1.0,0.021739130434782608,,-0.35,,-0.2333333333333333,,,491.4571428571596,3452.333333333178,0.0,508.33333333337214,0.0,648.499999999903,0.5,438.91999999997824,0.16,-270.999999999993,-0.10000000000000005
SvtOrPatsnWjicxtyndEzSdO5Wp1,2717.6189570149054,0.5477225575051662,522.2666666309037,4478.916666686535,-3956.650000055631,0.5,0.0,0.5,2088.9929523781366,1034.1263860014028,1792.5971428700855,844.5193613799535,1247.8599999904632,0.2,1.2,1282.6199999809264,3533.4199999809266,1985.066666650772,0.2,302.3183333479223,0.7676190476190478,1994.9266666650772,-655.7899999856955,0.0,0.45260888918650277,-9.727142862762657,0.0,1377.7249999940395,0.8,0.36666666666666664,3833.274999976158,2455.5499999821186,1579.3499999920527,1.8,0.27666666666666667,3272.506666636467,1693.1566666444141,,0.0,0.0,1938.245454528115,3273.77272726189,1335.5272727337751,,,,3021.0499999920526,11.0,0.34375,6.0,0.1111111111111111,,-0.36666666666666664,,-0.27666666666666667,,,296.3958095080511,-1508.8333334525428,1.0,2258.0333333214126,0.0,2743.149999996026,0.5,889.5226666688919,0.24000000000000005,-341.2759999942778,-0.08
ToTCRJ4EX9OL6UlJqmDkaEbggWF2,1248.8117971791105,0.5477225575051662,-294.4166666766007,1306.0833333383007,-1600.5000000149014,0.5,0.5,0.0,1623.1766666680574,658.7526793650131,1368.648571430785,417.0435167097561,1218.6200000047684,0.8,2.2,1362.9599999964237,2389.780000001192,967.1866666615009,1.2,239.7799999992052,0.6,1619.8466666718325,-370.96999999880836,0.0,0.28577518556156256,0.9942857163293617,0.0,2455.4500000029802,0.4,0.13333333333333333,2449.0,-6.450000002980232,1767.05,1.6,0.27714285714285714,2246.3600000023844,479.3100000023842,,0.0,0.0,1792.762499999255,2255.2500000037253,462.48750000447035,,,,4394.049999982119,8.0,0.27586206896551724,3.0,0.061224489795918366,,-0.13333333333333333,,-0.27714285714285714,,,254.52809523727228,-167.60000003377604,1.0,-179.29999999205268,0.0,1190.9666666537526,1.0,219.93466666340834,0.27999999999999997,-76.45799999773507,-0.18
UK6MLdHbCaS4xIz2f3vGdpkbBzG3,1333.6843728153651,0.0,2001.7333333343267,54.366666664679826,1947.366666669647,0.0,0.0,0.0,,,1138.5285714300617,382.28104036126587,1920.2250000014903,1.0,,,,,,,,1648.7333333318431,-480.55000000447063,0.0,0.302261626700969,-64.39999999886454,0.0,,0.0,0.0,,,,0.0,0.0,,,,0.0,0.0,,,,,,,1508.4636363603852,0.0,0.0,11.0,0.09482758620689655,,0.0,,0.0,,,,-334.3666666547458,0.0,828.449999993046,0.0,2789.666666666667,0.0,287.1183333305848,0.0,-212.43666666564008,0.0
Ub7nV8F55kPruh35ZpUcKoBUyn63,975.0664146595293,0.44721359549995804,636.1833333224058,1006.5999999890724,-370.41666666666663,0.5,0.0,0.5,1542.5600000003974,451.31871982667656,1226.1428571437086,354.2459674478856,1152.3199999988078,0.2,1.4,1154.280000001192,2082.2799999952317,934.0866666615009,0.4,64.38000000119216,0.8333333333333334,1910.293333329757,-342.06000000536494,0.0,0.2708815239998531,-27.87714285637645,0.0,1385.5249999985099,1.0,0.4333333333333333,2224.6124999970198,839.0874999985099,1465.045000000298,1.8,0.2911111111111111,1989.3499999970197,524.3049999967218,,0.0,0.0,1512.4727272689342,2147.018181817098,634.5454545481639,,,,3994.5333333313465,11.0,0.3548387096774194,3.0,0.06,,-0.4333333333333333,,-0.2911111111111111,,,316.41714285668877,1479.566666672627,0.0,1684.649999986092,0.5,-41.86666667461395,0.0,556.3986666619778,0.27999999999999997,-215.59199999988084,0.02
