participant_id,wcst_rt_slope_overall,wcst_rt_slope_within_category,wcst_acc_slope_within_category,wcst_delta_trials_first3_last3,wcst_learning_slope_trials,wcst_rt_lag1,wcst_rt_dfa_alpha,wcst_delta_clr_percent_first3_last3,wcst_learning_slope_clr_percent
06qcrpGKL6Vc3LVplFQC90VAcRm1,-7.715548372323597,-50.01677059809189,0.05365424049634577,-2.0,0.799999999999999,0.1273794179010029,0.9123339495761636,-4.135309135309143,2.271775843204421
0ZtXlQtAJkW6jS21vfMOtNL4OnL2,-3.571515326777695,-112.55130853622869,0.03996656937833409,2.333333333333334,-0.3142857142857135,0.3243845999581843,0.4728955358507945,-4.417020887609127,-0.41793500617029866
0d841i8KPjdjwCYfDuUUXj0SEjH2,-4.704523415457581,-174.03167497607046,0.04811854811854815,1.333333333333334,-0.4000000000000005,0.21974715609351142,0.6925909600191007,-10.217560217560205,2.9070929070929066
0oa5NYVnIBS9NmrmRAZrahXDctP2,-15.47678329015006,-106.29205960699828,0.05444555444555446,0.3333333333333339,-0.20000000000000007,0.3753101106143971,0.7291937077680845,-2.525252525252526,1.4485514485514492
146QT9LupyU2BAiTsB3PMIpVXM22,-1.995367790079482,-40.41460320728586,0.03493859082094377,-3.666666666666666,1.171428571428572,0.23033586115265195,0.7893037646779502,14.62842712842712,-3.795609152752019
1Vb7DcXYw9R86bw5qj9eBk9fPqA2,-12.638834490380106,-231.31466033992618,0.05569430569430572,-1.0,0.14285714285714357,0.3295172269339313,0.6429313135962481,7.187257187257188,-1.0489510489510503
1dpmVw8fpcc2IHs0s9WqdU8Yvi53,-21.091822624923353,-128.6816075562894,0.05437062937062939,0.6666666666666679,-0.34285714285714347,0.2855740288639543,0.7255208369944788,-3.0303030303030454,1.7316017316017385
1fbLQPCcysVlSKup96K4yI5NX6G3,-11.258018792484352,-93.3777685790862,0.06500956903433684,3.666666666666666,-0.5428571428571425,0.49894696243223075,0.7866492276637876,-5.291005291005291,1.360544217687078
1tT7dcLvf0bMGBdBWWYd8YkdJwr1,-32.59284632463813,-298.5923023294991,0.032437932437932436,-4.000000000000002,1.9428571428571424,0.10072428200409077,0.8255908549220713,-3.7037037037037095,0.20202020202020865
1upUBO9zBnhHcpJ1WoAnaBXWKRV2,1.8616834142182415,-52.2303020466973,0.051184699363563936,,-8.199999999999998,0.24446164974810958,0.6395665992448983,0.0,-10.41666666666669
23AEyocWhqY955WHbxhHRSgQ1ms2,-29.330512018750117,-253.238432033609,0.05391667156373039,-2.333333333333334,0.7142857142857141,0.024948466538377696,0.7158746391611841,9.622322122322117,-3.2735122020836314
23hG7h2ByUZDbmOMTDtp0HT0xRb2,-19.40465287979495,-71.42610621052224,0.04335404853275293,,-14.499999999999996,0.13308612847856152,0.6873467860317655,-18.495077355836855,17.5011845935152
28nQWMwCaSNFBEXlicY3eHqpwKU2,-12.568036526033243,-15.871318810105505,0.04145728450816621,5.333333333333332,-1.6571428571428557,0.15108783040481977,0.8919688768014655,-4.948594079028879,0.5887349365610254
2FHuv7L9nWPdbIiWHRIuXtcoyw83,-0.8358148893361781,-58.07472527472432,0.049900099900099915,-0.3333333333333339,-0.08571428571428531,0.022182808902064952,0.6498132952972618,1.8315018315018534,0.6422149279292139
2h5FgHUEvBS1twD5DqbTIRrMm1f2,12.673727891296988,-146.07235235222416,0.04520190994649199,-3.666666666666666,1.8571428571428565,0.18054161003502198,0.9482416472472446,-1.2142178808845472,-0.7424850281993192
2zDXvJKvjeejeOSNbtDbtSI5cdz1,-8.886368209258055,-48.5624442224777,0.05194805194805196,-0.3333333333333339,0.14285714285714302,0.01859107644404652,0.6918804715214822,2.1367521367521363,-0.9157509157509188
3FSnTCSiUodLp5u3bE0xaUjLk0b2,-14.325587729066848,-141.79249403675067,0.04373981711443012,-4.666666666666666,0.6857142857142854,0.5867253807002649,0.6496833250109814,8.703703703703724,-1.9004329004329021
3WijiOiVCoMbn80F05SPYsxl0TC2,-16.852386310562466,-103.4234669499943,0.06522986817104465,-0.6666666666666661,0.05714285714285745,0.4547654617994794,1.106206090443599,2.9761904761904674,-0.08503401360544263
3rlzYufVjVVLv3ZFLcpfZUtXEEi1,-4.088410147559054,4.574129982276117,0.02271640016398768,,-5.599999999999997,0.20377380998990172,0.838748358581641,6.744704570791541,-6.927376970855226
3xCaqfcHxRQxuOlEzXz3PNcHODH2,-13.78029959810596,-69.60133444178875,0.020908748114630477,2.333333333333332,-0.7142857142857144,0.2123292766720125,0.6737254867932,-8.775252525252498,3.208874458874459
4ySuGdFDDmaAr6JUXbD4UIY6BQ13,-12.092860330209893,-103.3255042421331,0.037694551824986613,-3.333333333333334,1.6571428571428564,0.30525905224371763,0.8433157243991374,-1.2014555492816186,-0.845634696566378
50R0P1MIMvRvK1qpqfGROchII6R2,-3.245458421190786,-17.362698214845626,0.023011038428084205,,-4.6000000000000005,0.09556291890110546,0.4626023861382156,13.10483870967741,-8.413851694055596
5OOi73igsahMZ5IVKQwwyhnj4Cn2,-4.229308022044708,-94.1930362448075,0.030488710635769477,-2.0,0.057142857142857745,-0.07267974064649456,0.7488547213646602,10.695187165775394,0.122230710466005
5Z68AKm9rIeeB2lVu3nJO7U31wk1,-4.495292185500076,-18.64809772285725,0.020054904373568223,,5.399999999999999,0.2975181438415073,0.8683225279358241,0.0,-10.64814814814816
5rXSa3anB5ejmFrnwUsTB82byup1,-6.2720930232553265,-33.14829462118538,0.03540189600561119,-1.0,0.9999999999999994,0.41745264335047433,0.9884902020776355,6.0784313725490335,-2.1114179937709348
5zxa5CMLGQSSonWOXqXf0QNS3PH3,-11.616253553163304,-93.71587321919202,0.04581412739307478,-4.333333333333334,1.3999999999999997,0.6087447744359458,0.5563180238576491,6.744133059922547,-1.9060638609510783
62fAfeQc27bZelkPX7G54T3gvci2,-4.268244248097656,-270.0386047286121,0.04861804861804864,0.0,-0.11428571428571421,0.023083320695583456,0.6694224500205106,0.0,0.7992007992008048
6ABZuv4jbjgE0B8TeyUk6nwVb122,-7.782354443055048,-79.3185524081575,0.030561844069908597,6.666666666666666,-1.5428571428571412,-0.009901290879719355,0.4906255140020315,-1.452490162167578,-0.9451838484096522
6OwhwWQDThSPHTVAeXugohrYuje2,-12.55791264180809,-12.55791264180809,-0.002280374473539644,,,0.22108099836230796,0.6478718273091063,,
6WFCyGwk71XLPBmbe4Vav3eotVm1,-5.614833759677882,-126.29893147173236,0.031110556110556117,1.6666666666666679,-0.20000000000000026,0.23254183672950923,0.7719432545229111,-10.606060606060609,1.3419913419913432
7cvQFrzIDEVAkFCcGAHZPUvJ2MF3,-8.464553657194054,-46.557404895763995,0.04882494956024369,1.333333333333334,-0.4000000000000001,0.19392537601622578,0.9867482331589825,-6.944444444444457,1.8106893106893107
80UJMJbCOMgs6YVpsMgXfYTzw6o2,-21.231488933607398,-91.2676923076696,0.05744255744255746,1.0,-0.37142857142857144,0.40970952100587166,0.8809662748941411,-7.187257187257174,2.647352647352642
87w5Le0CgZhSfYAaOH3Xd2fc98l1,-33.32958478300923,-49.02452385950991,0.040993314909329795,16.666666666666668,-5.942857142857143,0.1381912431890853,0.6192936058225165,-26.637402452619845,12.857441471571912
8bwaafIhKVMNBoHaXFcY8HirS9u2,-10.46903712374187,-105.62090995609834,0.030457368718238297,-3.333333333333334,0.8571428571428575,0.2731925127642956,0.6218435857193763,-5.167055167055167,1.481851481851483
8cOQBMgQEYSlJ4CK60pFMmBVEBV2,-32.50123877091474,-74.89735247549305,0.04097111991848834,8.666666666666668,-3.657142857142858,-0.004445021628576507,0.6414688973399213,-19.394348341716764,7.8123630755209765
9NTZ091xWyOO8DgzyTGY0O3i8IR2,-2.1335196687405427,-14.925495035087463,0.03481888058547098,-1.0,0.37142857142857205,0.07250139932867365,0.5752089713368242,5.968210533427921,-2.333883507796553
9Xz1RIwnPXgyRqmucudW9VeuDnq1,-5.00995975855166,-33.23481518481974,0.0537795537795538,1.0,-0.257142857142857,-0.10639166380568903,0.5762944844669815,-7.187257187257174,1.7815517815517843
9l7DjYLs0XdgwykPZR5E01KTZfu2,-17.186349928881015,-213.80712842959346,0.036147186147186164,-3.666666666666668,1.5714285714285712,0.262356419877981,0.6067335184171666,6.349206349206341,-2.7210884353741496
A9AEg0g6c2P1Bk72HLmnK3oWJ9B2,-23.68824893069246,-66.27258552768461,0.05393519523954308,3.333333333333334,-1.2571428571428578,0.1271998837439095,0.8930863660995647,-12.62626262626263,4.245754245754255
ASGvwW80q7VY7xFaLGZhVuErUQu2,-9.371034919807622,-92.78171051428495,0.03573093573093574,2.0,-0.3999999999999987,0.2472645556231962,0.4658966498602194,6.51015651015652,-2.6264211978497696
AUKCfn4HzgVB7m6LNnh2gQb7G5s2,-19.54268178982883,-108.87471437489181,0.051781087849199305,2.666666666666666,-0.9714285714285718,0.11018208043375412,0.9542929376613658,-23.90350877192983,7.098997493734338
AsXBOflrszVNKoFqbN61bMJqS0k2,-4.367285921428811,-65.01737649072423,0.03149534933590662,5.666666666666666,0.08571428571428605,0.20632218479331266,0.8007448141720486,5.622895622895626,-4.736270265682029
AyAnuCaltBbpEYbudoyNzTvXlcC2,-27.529862985699992,-119.33167501423266,0.04112238997149484,8.666666666666666,-3.42857142857143,0.3115302829020478,1.0229354946042295,-26.209411503529125,7.605755588948862
BbwUTWswjtPWhb5DvLAmh9Hdpyl2,-22.502757336111152,-19.90321259842586,0.0034735658042744657,,-123.9999999999999,-0.02343310030185278,0.5212022735559547,,
BcCTlXWx6ARh4rBtkdWRgZH3C7H2,-0.6729191863779368,-13.222449217904929,0.04487179487179487,-0.3333333333333339,-0.14285714285714188,0.09344161909001611,0.7235491001349177,1.1377511377511524,1.1869083297654692
C4HWhqUIJ3Rl6SboyJGqlrXFAJJ2,-22.027460086785656,-82.29811027517239,0.03634468023214827,3.0,-1.4571428571428566,0.07867825540745124,0.7842099959266017,-1.1999075724565813,-0.32785297491180015
CDEoAyvS8feXLKMKsaZah9agEhF3,-30.074298583806115,-458.05997002997674,0.03712953712953714,-1.333333333333334,0.5142857142857143,-0.03909232058119691,0.39786834806209515,10.217560217560205,-3.946053946053945
CGyTPhevTbSvVnZ8qSP0NtWuhgw1,-11.121441312203801,-100.4243147025832,0.05234357575688845,-2.333333333333332,0.6571428571428565,0.13547537458546402,0.7107156495341888,2.111022505759351,0.763081947292475
CN1ySCsiSLN4m9yh9fS4s5p6T8k1,-16.992502258355454,-98.80182364033077,0.05997863505603446,-1.0,-0.31428571428571406,0.4066654682477427,0.9203546328468344,4.451566951566946,1.6996891996891965
CUNlBEszJVRGK1jWlTaOaCqpDg53,-13.48817088174728,-82.25881257628927,0.053321678321678334,-2.0,0.5142857142857151,0.09458029469902589,0.771154232276955,6.581196581196593,-3.2014652014651994
Cbkx2NHyF3NrebzXGqNgSfiWent1,-2.939480214641465,-84.34296370294219,0.04720279720279722,-0.3333333333333339,0.08571428571428535,-0.020078889156935592,0.55189363299673,2.525252525252526,-0.6493506493506526
Co587hoelyeANqFX7AYvuVQW0lZ2,-2.556551408923917,-57.93523621250699,0.04668201363853539,3.333333333333334,-0.7999999999999996,0.18537968358990806,0.6105146835179944,-0.8935508935509091,-0.2031302031302084
CtJe4bZZnYUBNrcPk00d3YQFSGp2,-3.9614041256452723,-83.32553133140554,0.061941245029480334,0.0,-0.2285714285714283,0.4807340573866703,0.6678023740472899,-1.2973137973138051,1.5240711669283127
DAKDKPH698P12JfTbbjemLI6PIH2,-24.041463276530077,-72.79403330728542,0.04719563258565817,-3.333333333333334,0.5714285714285714,0.42027965429984193,1.0471699025291443,4.399766899766888,0.4920079920079947
DPvStUYSmohmXwFwaKRqHv89R3k1,-6.507147657654902,-166.47560606285782,0.022727272727272745,0.33333333333333215,0.02857142857142846,0.2771723641747197,0.8029226917578656,-3.030303030303017,-0.25974025974025977
DaRehVxIOhXtEtUExdgvUl0mKcx2,-11.37642115683051,-127.49858537961086,0.05103610038011426,,-10.000000000000005,0.18220562994522171,0.7558014131698834,-5.555555555555564,11.529516994633271
Df83JuPuJkXqTGbENhM2gw5SJM43,-9.721394984326285,-41.826673525472195,0.04049336045567033,-5.333333333333332,0.9714285714285721,0.15291596854558545,0.6562332533700516,0.8935508935508949,0.20313020313020763
DxSidjznjVSNDJuDqqGgxpMEGtw1,-22.145396420190085,-162.32176712501567,0.03804528804528806,0.0,0.05714285714285763,0.42723613905930996,0.7629529117946922,0.8935508935508949,-0.7492507492507483
DzB19GqCB7fyrlEPexogWkjFzEx2,-11.071161149266647,-45.878951047207636,0.04976910344557404,0.3333333333333339,-0.48571428571428615,0.3647477748808647,1.0073757485344235,-9.523115773115762,3.520229770229774
EEodWwGh0wWq5f8JmzfKvq0lyeu1,-7.827726532827784,-101.72601028411488,0.03017747795645225,4.0,-0.057142857142856454,0.0665307153260442,0.78301998098001,5.074462574462586,-2.6266511266511263
EUhcW9kURScie1DwGPHqmNqotJB2,-0.27123695301910417,-62.39454767818745,0.014387457110503772,,11.399999999999999,0.07020546371604583,0.619871033538772,0.0,-10.000000000000012
EmfmKFDgWJdW47a6CNTNjnbYaPh2,-4.919405146718279,-126.65421726960271,0.03171572999159208,-6.999999999999998,0.9428571428571436,-0.1677991291776908,0.47867394705861027,17.216117216117198,-4.113029827315535
EoToosG69XMp4LTYdB6sB9WTrv22,-30.172255244684408,-225.79993896640255,0.015318015318015334,1.666666666666666,-0.5428571428571433,0.4726409300974094,0.6991911667112407,-13.247863247863236,4.358974358974358
Fz7EUjZCLuUBxLDUVtN6djaBTy42,-18.419902804582886,-59.01281310011182,0.054717942875837616,0.0,-0.2285714285714283,0.024138788995746473,0.6380018773320824,-12.158538629126852,4.160741219564754
G1Ff3XYUZMRsPafyEQ80ussnVlf1,-1.8877772498266085,-4.889525489454762,0.03648265466662773,20.0,-6.228571428571425,0.18111563767663022,0.7671746941578401,-24.277389277389283,7.975524475524482
G9VruXninjUdE9czK2DambZl5li2,-15.537068645639645,-70.44457128549261,0.0476657861888041,0.3333333333333357,-0.9428571428571406,0.11441197515130534,0.5197241135058354,-1.475893387658104,1.8848448470297232
GDZGRW51kbWtAdUIHCtEd8sAtqY2,-24.418918181879935,-84.9832633868443,0.06091277143908724,1.0,-0.7142857142857146,0.2764685191174342,0.8514046356053534,4.106449106449105,0.05827505827505908
GE4hogtdLdTFbNasENgtm6SO3hC3,-14.89461648960274,-89.75625319104073,0.040542790542790565,-0.3333333333333339,-0.1999999999999999,0.41667154585260535,0.809197325249165,2.1367521367521363,1.7216117216117162
GEwkBw3YHaNp3TCh9YS9PKVfavz1,-16.001477470116022,-97.04102748920678,0.044881245345641634,3.0,-1.1142857142857148,0.023183033888534578,0.775944388436728,-16.446516446516426,5.883005883005883
HSggdq91WiQp16bOj7V3dABkcgk2,-10.166579843381253,-17.81814112330326,0.04047071779269923,-3.666666666666668,0.028571428571427995,0.062142942222752615,0.6638803808681741,-2.7346292052174306,2.8334970351777056
HbydnnT1hUP3WagAy2TJAc6GqVs2,-0.0743036144262529,-81.95307137109367,0.03046953046953049,0.3333333333333339,-0.31428571428571406,0.01782947229931233,0.6623107526234443,-3.923853923853926,2.7605727605727592
HyQM2xKwwuVfqidmRYF6TiRk90C2,-9.407417824558875,-75.2922943722999,0.037545787545787544,-3.0,1.1714285714285704,0.41970854172720795,0.7643488020956801,-0.09990009990011117,0.9609438180866733
IaTJhUGICmO9xcL3605RW8QHneN2,-8.174363847728781,-34.52883466825952,0.04726738150130764,12.0,-3.37142857142857,0.20734105239635442,0.774705054399454,-9.292048390885611,2.9413319238900653
JOBWLirr6KYf3GXJ3jPFKmd48S93,-22.172697012962026,-63.603968532259614,0.05706099456099458,2.333333333333332,-0.8285714285714287,0.6057983510593882,1.3966202070180356,-5.377302436125959,1.0058568882098287
Jp6aXC9KLjcFZBaQdZl4i9dUscl1,1.6772631284212707,-69.58616161533075,1.6054209807821417e-17,0.0,4.806354928642459e-16,0.013421935487762958,0.7962675892669842,0.0,7.735715910002038e-16
JvrZiMHtAfP6gvQtlevYWafKy0z2,-1.4157354200751324,-67.44955794591725,0.05884115884115886,1.0,-0.3714285714285711,0.353748995270677,0.958454893773256,-5.167055167055182,2.12787212787213
K26uNuY0VNPjJNF26wEx3bFg0kr2,-2.9266730819690685,-52.72505106004815,0.037912087912087916,-1.333333333333334,0.45714285714285796,0.13750278917556044,0.5407336262517589,9.523809523809518,-3.4013605442176864
K7ykiXe6CqQUKpEzs2nYrMTVuDA2,-38.12200471486998,-138.07286119516502,0.05603338078310271,6.333333333333334,-2.657142857142858,0.08544949858051044,0.514037206611202,-19.19191919191919,7.792207792207796
KtKj6zUKc5Oogd2itg2jdwkchnf2,-10.49902515396991,-69.13033411037362,0.015734265734265732,2.0,-0.5142857142857138,0.2370455838252421,0.7971657190195913,-16.666666666666657,4.285714285714277
LSLmd8jENtONZFVkIpRDX665Bu73,-8.249866674870187,-91.29508577549869,0.05155713851366026,-2.666666666666666,0.34285714285714336,-0.004892390708056289,0.8914865164632949,5.050505050505038,-1.2987012987012965
Lhv9P8ZrkDSIB7BGwooAqfu8SGF3,-8.63446344759025,-101.08410547943168,0.04447635697635699,-1.0,0.42857142857142794,0.1668942213697765,0.6274988879147967,5.555555555555557,-2.380952380952376
LliUMEIsrCVZ88YFQfevan2Og4z1,-8.04471649484594,-61.87841577539995,0.030072256175197362,3.666666666666666,-1.1142857142857128,0.18015922457306424,0.7573418200499192,-4.884135472370758,0.9788642729819184
M4Km1Q2P2oPliChDQkwl6k20FUI3,-0.5070799724260276,-168.18244100625773,0.040351770692327975,5.333333333333334,-1.1428571428571437,0.2821269540361901,0.8323550709429604,2.0903715021362217,-0.8546448882583312
O61Eik2zvrSQLMNpFbTNEgjWwMr2,-7.958316367189332,-40.81192432553622,0.042715617715617715,2.666666666666668,-0.6285714285714284,0.468402758834923,1.2155577844600722,-16.405816405816424,3.6915465486894052
OExlWyngGfPrScDYjaRcv5PIAet1,-14.423469365425715,-170.03189144015434,0.026390276390276413,1.3333333333333321,-0.34285714285714397,0.2924359269934364,0.6598141618154295,-10.722610722610696,2.7572427572427562
ORuVuFPU5idz3fMoXTGsbwToW2j2,-6.689215773220388,-52.28787944582465,0.05182480562915346,-4.000000000000002,0.6285714285714291,0.2579382794048537,0.694138528174022,3.4161490683229943,-2.469683525584144
ORvIk1xRWIQmKuLVe6GXNouvAXx2,-2.526479906744235,-57.76548025004041,0.03510227681589582,-8.999999999999998,1.9142857142857153,0.13543066834524528,0.8067648769073639,20.75977162933684,-4.532655750047064
P8mTl71XaYNvFMTCvlKpzzUdc9W2,-7.622180027968447,-116.30160220549062,0.03839836633954281,-2.0,0.5714285714285723,0.16823185618949069,0.6641319887386334,12.5,-3.928571428571429
P9bS6GGJcIXivbMWo4ibJ5jgUPG2,-6.056496927176189,-93.81038350617165,0.04170829170829172,-0.6666666666666661,0.17142857142857165,0.002079424748939846,0.336051686884199,5.167055167055153,-1.4818514818514814
PLreonkqaMeFc0UqxKUelH44UQu1,-44.908166033687465,-194.17443998227466,0.05219551953422922,4.666666666666666,-1.3142857142857154,-0.0358319455162207,0.40290104548156,-1.1453823953823985,0.9995361781076081
PXesLO51qlY7lJBrLdOAZiHmUR72,-35.72752872642444,-35.72752872642444,0.0022660684856253433,,,0.14316909815806114,0.6200100610199805,,
PkpTH7pWpEOG9A86xSloOSozwTk2,9.057751556390098,-20.5830083597273,0.010277768144640723,,5.0,0.02285165686159833,0.6848121529200132,,
QG6VXg7od2fHJ1SF9ZzYBqUa1FY2,3.248114031819175,-42.61390942390819,0.04920079920079921,0.0,0.1142857142857144,0.26755537729058587,0.5865132764951606,0.3885003885003897,-0.8991008991008991
QbOEVCaZLUMOgltUdXm58oZOALv2,-13.447735373523562,-70.1643928395034,0.042222934070760165,-2.0000000000000018,-0.6285714285714288,0.048259886780479704,0.7510623087938413,8.372616301005053,1.2962631084662497
Qg9GDwQ9hBNkDLt50CNLd4NqRlX2,-34.51103763235365,-231.03062992100843,0.04500499500499502,0.33333333333333215,0.028571428571428914,0.04220237646331788,0.7338898436588062,-0.9379509379509443,-0.7111935683364305
QreA2rLiUhV3YHeMfuHMPdGbpJ53,-4.450450728207931,-4.6618125244366775,0.04446553446553447,-0.9999999999999982,-0.4285714285714282,-0.04080504069481763,0.669650401605846,-11.291819291819294,6.176528233671093
Rc706mP0TSeIoIpMYH1SpRXjOxA2,-26.84543628122742,-234.80212123080946,0.007575757575757591,0.3333333333333339,-0.08571428571428605,0.027651158616569686,0.5949058779816425,-3.0303030303030454,0.7792207792207848
Rmd4rr2vGjOoLvdfYd4EdYyxK3m1,-33.44099819349515,-209.40374467626512,0.04584363005415638,2.333333333333332,-0.8285714285714284,0.09306934845940873,0.6911571373616423,1.025641025641022,1.3346653346653297
Ru3Qf6pXZua1DfNkQdhbor6iJ403,-12.371677909336098,-232.23892751692526,0.035855810855810855,3.333333333333334,-0.6857142857142846,0.08756941783631657,0.6183058285465977,4.942612942612939,-2.5896389324960722
SOhR7IO689NQCPQu56SjATO8FR92,-4.677483348333121,-71.59290804340228,0.0503403365472331,-8.666666666666666,2.8571428571428568,0.22881768470094868,0.6827333700687465,23.160173160173166,-5.658627087198522
SPCT9D90pRa1ihXS5jEw6vCmquI3,-40.853764477654146,-29.408642919782775,0.047625291375291395,17.333333333333336,-7.542857142857148,0.16221320787259266,0.5205355722621774,-12.17338217338218,6.754578754578749
SpSfX0ZcfcPLdlOENlfdfvEPwru2,-8.163724355264334,-82.85912420912535,0.04928404928404931,0.6666666666666679,-0.17142857142857149,0.3040523480937724,0.7565582185777184,-4.662004662004662,1.198801198801197
SvtOrPatsnWjicxtyndEzSdO5Wp1,1.8058040471711052,-75.34900257449182,0.0506585992267107,1.333333333333334,-0.8000000000000008,0.24944866952463346,0.6179304280708566,-5.48278690693553,3.2461243606754486
ToTCRJ4EX9OL6UlJqmDkaEbggWF2,-29.711792005353747,-124.24401598368398,0.04602064602064602,0.6666666666666679,-0.3428571428571431,0.5927083070719857,0.7227722997790564,-3.663003663003664,1.9884877027734205
UK6MLdHbCaS4xIz2f3vGdpkbBzG3,1.4907543260899683,-59.316887859069354,0.00029840947748499514,,-17.6,0.4425934854843755,0.9194940122481813,-3.9426523297490945,3.548387096774179
Ub7nV8F55kPruh35ZpUcKoBUyn63,-6.36927958445486,-84.50648092078804,0.05058103661044839,1.6666666666666679,-0.6571428571428571,0.18249828454268513,0.9387060499996436,-10.606060606060609,4.112554112554111
UbqFccqQZZgcqJIqCn3ErH9zQdM2,-7.242395357443497,-20.264887961975077,0.054204953370693094,6.0,-2.6857142857142864,0.13076594149996804,0.7059074585890345,-12.610722610722618,6.137196137196138
UbwuSMtBsHdW3Ji41opk3GInMqi2,-6.115452968086748,-43.52248499047166,0.042207302501420164,-1.0,0.4285714285714281,0.1959208848911823,0.58809543500147,-1.1370573870573821,0.4207102421388184
VwTymW8T68MfpnJvZ2X97ILqDWS2,-3.1834146341805365,-40.59621595363122,0.05219759170997562,0.33333333333333215,-0.5999999999999998,0.2856478233424802,0.787761772075111,8.365708365708372,-0.88134088134088
WKzqsLX1lNVSdbGgYTTVGtFwsrF3,-6.484088267408364,-139.31561053363038,0.02509309912055908,0.0,1.1428571428571428,0.12871866216820424,0.7716449118880464,6.460423634336678,-1.1251791686574337
WbOfW9KmUkPQK8o5hlHJnJFdpp92,-8.837031157360835,-38.52273948283181,0.04013209013209014,1.9999999999999982,-1.714285714285714,0.12412555603406054,0.6975255015012369,-8.12459145792478,2.2822151393580037
WcTsIpSoEhYeIBSNjAbbdaNSBya2,-6.865179352006099,-34.66239989466374,0.05389385726073032,0.6666666666666661,-0.17142857142857051,0.24465644706793455,0.9441272414045917,-16.75925925925926,4.479591836734691
WeHQDy9BWldTlaQDVVlsJNCqwxA2,-5.428015831030835,-14.574823872949787,0.038924970225279826,10.333333333333334,-3.114285714285714,0.07953483267323166,0.6325081357704592,-27.081215081215085,6.795173080887367
Wfo71fsX1VVfPZnzhT7HEYBTwnq1,-25.769562350414866,-87.38998168681883,0.06393606393606396,0.6666666666666679,-0.1714285714285711,0.38414908539976,0.9550006103355545,-4.662004662004662,1.198801198801197
WnC6Uscb5VMIr43GASKiUCO3AYH2,-21.31382747139195,-73.3645086614605,0.04967295776119307,1.333333333333334,-0.8000000000000008,0.5136181347948724,1.3358870130033043,-6.033182503770746,4.184051242874781
WqoZv41KTtTCuPKBPyClregrKAi1,-4.842594484167835,-42.13132870054046,0.02636407452196927,8.999999999999998,-3.0571428571428583,0.04124867109858527,0.5513295576914756,-28.328671328671305,8.542457542457544
XbHvBButpZS4bapbJXJLAYcHnn12,-2.1055146722217737,-54.33518887432799,0.036067721745641795,-3.333333333333332,-0.971428571428569,0.31548173188567985,0.8309921109059264,6.572888678151841,-1.9016911648490618
XehZHBpwr5MYzUXkj0FAYCsFG922,-7.383519292991709,-44.10416170769572,0.04504176452015999,-1.6666666666666679,1.4571428571428569,0.18365102895551658,0.9054143445870451,-1.8518518518518476,0.3968253968253923
YEU5ox3jteVINfdSTg5ymqYcS9o2,-14.541932282334948,-157.96996503465607,0.03712953712953715,1.333333333333334,-0.5142857142857135,0.5366374791788534,1.1591460780029228,-9.32400932400931,3.716283716283714
Yco8O7tmHlbsUBfKW2ywcZByGO32,-34.94416031730278,-216.36141802648862,0.016483516483516494,0.6666666666666679,-0.11428571428571391,0.2995020469010265,0.55175925258432,-5.167055167055182,0.9623709623709589
YzmMCD3ZmzbWlV4pTQ6hvDdnuMk2,-12.513204414300537,-95.96774349803871,0.057688879747703294,-1.3333333333333321,0.34285714285714347,0.37544377269455,0.5021317618496053,1.062091503267979,-1.504329004329008
Z3GikGkUkjMOa6UK1xdIDvuGRHp2,-10.361290734598333,-62.84910043670995,0.03333403782320193,-1.6666666666666679,-0.31428571428571406,0.22485241606320025,0.4962540297426624,-0.2086475615887622,-0.5912322971146453
ZEd5KGl23wS7rvzDkxzgqmCgLaC3,0.5242850448539869,-63.79572927230722,0.048035298035298046,2.0,0.17142857142857196,0.25637476674422865,0.6328022067470777,2.525252525252526,-2.4427952999381524
aM2995jJmJWvr6cneaGH58HauIg2,-7.829567325123252,-36.27284565867824,0.05310476846854556,-1.0,0.5428571428571434,0.2977114437665474,0.694033332856419,-10.392156862745097,1.271708683473388
afdTz6deeYWf1qKNdUpKAYKN3hz1,-13.999321037803291,-21.86087388296778,0.02408759646465249,,-17.599999999999998,0.1535503891903932,0.7657199351409189,0.0,17.006802721088423
aj2Ivskb3BgyvBNTLIKlSZG0Sq22,-1.0363245975731805,12.624093552338097,0.04014455444796003,13.666666666666668,-5.114285714285714,0.06191929030534179,0.6608910924016639,-21.008158508158516,5.164002664002667
asKxydfXDkZAk89VaD4hwVovkzJ3,-8.337409665771766,-41.838260394582655,0.03918216286637339,-1.6666666666666679,-0.08571428571428669,0.23641697217657193,0.8810907846801034,8.533863797021695,-0.5430909942188078
azdL1gX79EVd9iepyCAVQrqIaQF3,-7.53683152664734,-85.95259056389615,0.05069924055992169,0.33333333333333215,-0.3142857142857135,0.18184632121689498,0.6655801348740382,14.041733120680476,-2.420255183413075
bXpFswkI7TfIfL6G4FqWrbaxTGx2,-2.012488784622469,-40.017342271252105,0.03836866159520624,-5.333333333333334,1.3142857142857143,0.3824626875379748,1.0737943879644174,8.66032116032116,-0.03524253524253693
biQ16yPcCKSkJQhSxUKcDc8gm8I2,-2.5408747826311195,-11.894889890543483,0.022279191277624677,,1.8,0.01486967879746406,0.7245903875307939,8.098891730605288,-6.433387584282719
btpcu1rB1JeSTo2upeHGPdv8kYG3,-19.11442393479449,-173.08391275419572,0.05519480519480521,-0.6666666666666661,0.11428571428571421,0.16439786256400588,0.5656928255655462,4.662004662004648,-0.8325008325008291
c0hRe9PCPPZs3HWFqhIQargNlp52,-3.273990617749854,-51.22191571323231,0.05145731461520936,3.0,-1.2285714285714278,0.4121234538760411,0.7695154555880028,1.7521367521367495,-1.1172161172161177
c8BtRUVPPPZHjyhX2rn702NoUld2,-20.031255426001525,-73.32616538107565,0.037469776600211384,-1.333333333333334,-0.8571428571428579,0.5393803757859957,0.6994618711248525,-1.4246622942275167,3.002463375134188
cC0BEsQjfrcuCyoaOas9zJT0MNs2,-1.0422393917052224,-30.484241010705016,0.047693162810038235,11.333333333333334,-1.0285714285714258,0.16589587275219708,0.7822893135887408,-0.8735072976559195,-0.7557759946083712
cEIs6U87xfbSL5eFTXDK77MmvNf1,-11.356053684270265,-69.52890402735213,0.03520322322789709,11.000000000000002,-1.0571428571428563,0.23339622153566164,0.8216460104797774,-1.6583416583416692,-0.4146329860615587
cUugYJoOmOSFc0Mh5JD0ZXJrYN52,-6.825970659460021,-92.88231510659362,0.023221570096570106,-19.0,2.0857142857142876,-0.023493357098932417,0.6691740073182053,18.518518518518505,-4.852607709750562
cec6NLR2ZLVVw6h0TEKSNIH11v02,-3.5067378341880033,-29.98597235341515,0.00719996321896374,,-95.99999999999991,0.0831938131123902,0.6484415120261443,,
cfoKz0AGhvYmW0DJmVKAZ01jh752,-0.1086308429391492,-15.871028269896163,0.049796694533536655,-3.0,1.2285714285714282,0.21586102246466235,0.9398847643170538,13.636363636363626,-5.411255411255411
d9rwc0NXArcNlJvFsgKhQqkGxJq2,-14.613813356183876,-86.21389538304182,0.04088475724631332,5.333333333333332,-1.2571428571428571,0.1981631522819738,0.6920646773783694,2.1633337422810968,-0.8871829924461433
dnkEqKuvjoQzAQm5yXlrAOp9ZlD3,-23.32835986614086,-387.20257367614187,0.05150266400266401,0.3333333333333339,-0.2571428571428574,0.3159209935403602,0.6332156610685962,-1.5873015873015817,1.5213358070500922
e7NIVznoeNMC7bBejXnMVvFNPfx1,-43.46639917962696,-256.91939061076346,0.07159507159507161,0.0,0.11428571428571463,0.5110630374493643,0.8280715300404152,-0.30525030525031127,-0.6017791732077435
fEL2NrgSd4MmDtLCAcMvCJQXTME2,-8.628450767838284,-66.8697692952433,0.05358997727418782,3.0,-0.48571428571428593,-0.009504367878378077,0.7107758586837438,-2.309970731023384,1.7440704658749764
fEq0OghbLpfD1jigl1Mbz96aMbg2,-5.256182416964915,-62.93793158939503,0.04725561794527313,6.000000000000002,-0.4571428571428574,0.08217942298979447,0.7110286410490991,-17.221475842165503,0.6845371377391087
foaW7wtvY3XLNdguFUK7OvOefP93,-4.5571323413432046,-49.67783804430525,0.03945050047991226,1.0,-0.6000000000000002,0.09988799933601908,0.6965045797606201,-12.71756021756022,4.311854811854807
g2G9l3no7RbeRA9a1W3JnfegTnh2,-6.691836925036153,-32.312838547923256,0.03026763560575603,4.333333333333334,0.5428571428571437,0.38987521355649063,1.0484968073140724,-7.49601275917064,-2.747778537252222
h12a1QYNpYbl3T0Gj1PxUz3EnEx2,-15.708469998071504,-128.77720612720287,0.03949383949383951,2.0,-0.4571428571428576,0.07957597999715488,0.7414689523435866,-14.18581418581418,3.0093715808001575
h52Mz0cZjnOsmXT02EgU3JzzRKs2,-19.490719972006612,-62.96237107919845,0.013131313131313145,3.333333333333334,-1.3714285714285712,0.1805490326498523,0.8709901447436398,-18.819776714513566,7.546138072453868
h5RYP03wJuVN0xo7qAR8CKFxLaj1,-7.843204499356436,-101.89310752951963,0.04708451350327781,18.0,-7.257142857142859,0.002608049078624207,0.7186595709322748,-32.45920745920746,12.47918747918748
hOrA1ssI5vaeeeXRJhtjrGrqHQn1,-2.768442798964482,-54.029115753526646,0.03055841217605924,0.0,0.39999999999999986,0.23825459346209923,0.917007001171095,-4.5634920634920775,-1.4022881880024747
hrRr560eFBNwJ0CcUjCqtSD8TdP2,-7.88588990045711,-39.39440563165724,0.0460419908309934,5.333333333333334,-1.542857142857142,0.1681226794171624,0.8020273034883207,-10.93673305949521,3.779962577916549
htPWXDgfuheOJbl6ihHore9XuDp2,-11.021562782621888,-68.65505679475326,0.03939027948315874,1.6666666666666679,-1.2285714285714289,0.11388922045993616,0.7764213761344692,-15.025252525252512,6.396103896103895
i1bdbtLuM9UR71xKs8yOhuCwJ9o1,-14.645443436646952,-91.96559691853305,0.0467576541105953,-1.3333333333333321,0.4000000000000004,0.057612834272004844,0.6835513464800268,7.837995337995338,-2.5349650349650377
i1tBstVkNiVP0qro7TgGD08IGGa2,-9.628490389354683,-78.58339518184515,0.045634757399463294,-0.6666666666666661,0.1714285714285718,0.16707977545837566,0.778990756319811,11.720779220779235,-4.698515769944343
iKVZi0Oo96UrMBhPQMHWFcf55uA3,-11.792361720808826,-98.38745143745406,0.05011655011655013,-0.6666666666666661,0.05714285714285707,0.12324660125368872,0.5408849820892875,5.555555555555543,-0.47619047619047705
iWsc4pghIEWOQUZKuQJMfe516UI3,-26.613519690563386,-123.90342532424995,0.04584844979581823,2.0,-0.9714285714285718,0.21038197838073183,0.97987040319926,-8.080808080808083,2.839826839826838
iZScIvzhvAdvlsBXU5D8IHwvG6Q2,-23.89597480320047,-166.82453883862325,0.031496975666516235,-19.333333333333336,2.628571428571431,0.15094109277913542,0.7613657837243304,39.277389277389275,-9.275724275724276
iZX3U88SSqYAtT564nBPgHUBsei1,-1.232763789546801,-15.123074319316922,0.043901295058377816,-3.9999999999999982,0.6857142857142872,0.23006004953247336,0.6481208286792065,-2.962628769080382,-2.383423028584323
idP8RVfm74N86O0dszLXANIpjXv2,-6.4601836357033795,-57.91803196876734,0.04462204462204463,0.6666666666666661,-0.22857142857142893,0.1470723927686091,0.7752074382659114,-4.662004662004662,1.565101565101563
iv9ew8Ci8lOzvXFiJw1acJfuRAl2,-4.171616358325008,-145.74792823275894,0.05476400104883078,0.3333333333333339,-0.2571428571428558,0.19287579648319506,0.647455709994306,1.2025012025012103,0.8039579468150898
jpklrtZKDdb3UbsoQ7Ho5KuR5yb2,-16.85975961557592,-150.71153457652667,0.02680652680652683,0.6666666666666661,-0.11428571428571384,0.11406804816898447,0.71708435853428,-5.555555555555543,0.9956709956709963
jzdk8E3tVXTXIozlfK5oeEb7wWp2,-6.522899884748522,-26.790503551802715,0.03815749467923383,2.666666666666668,-0.6285714285714289,0.1905602130340272,0.878734094790788,6.177156177156164,-2.1078921078921042
k8j7IpYfd8dYB0L1qyLCcrwoFOy1,-10.745041351684966,-193.99564319909587,0.017062134422249214,-13.666666666666668,1.9142857142857153,0.12872957966952395,0.7775505768890316,25.48283853879262,-7.174547117158307
kI0YdycDU0X5hcoEPjEON3Ionyd2,-19.31422869439199,-115.89482412187942,0.04808622749799222,-1.6666666666666679,0.37142857142857183,0.5229433124815976,0.881600967319716,-7.738095238095241,2.5927643784786625
kR2rCtaPyPaj7YMizKUDn5xL2qx1,-10.394405183760592,-90.48600566100134,0.0532800532800533,-2.0,1.6853686220433355e-17,0.200917334865654,0.6541914095984068,-5.699855699855675,1.7206602920888632
kgSRatooJJfDaMZ2yIURqb8aJuE3,-12.641120600208245,-117.74961205446444,0.03155178155178157,0.3333333333333339,-0.37142857142857144,0.3043086829711764,0.6335929073167254,-3.4188034188034067,3.150183150183149
kxerHPSL3bQjD74HhiebYf3blPr1,-9.082839458531321,-33.73513690060825,0.02572334599188819,,14.5,0.3120442092042953,0.9691123178997627,,
lHDkoPQu5reNCO45npeYSS9eLQl1,-16.31027152270296,-40.15497771742961,0.052982013961368986,5.000000000000002,-1.6285714285714306,0.2676318010485131,0.6834822260353297,-15.13116513116514,3.9032396175253408
lpzDdvuMkKWkPxu6xeclmdctEp42,-12.612252708245116,-72.38573034934937,0.05403654316697796,3.333333333333332,-0.2285714285714283,0.1460473248537644,0.6697232117771446,0.6216006216006207,-0.4195804195804185
m69r9GQTk2b51mvxrFLt4fZeJi52,-1.689363143631161,-57.881364794622904,0.04238536825493349,-5.0,0.6571428571428574,0.1735781460670234,0.5920672069478342,11.35392385392386,-2.5715950715950693
mUZzgdWKnPb2txOkJg9FHgqX5792,-3.1406228571336703,-14.984770047368059,0.04953820060328339,4.999999999999998,-1.3428571428571434,0.1047803981502653,0.6844123398015859,-28.406023800760657,8.338372154161629
mYRMPGfR5gRSjnp7ojjD5sXo7Jr2,-14.28076564239778,-232.68514747544427,0.03533420483884881,-3.333333333333334,0.8000000000000005,0.29044758283198807,0.6926222499634865,19.476819476819472,-4.7286047286047275
mg2WZiRBn4NQDKiMK43Y8dBqyG53,-12.141123359580083,-23.102927921898683,0.034060687745571305,9.333333333333336,-2.9714285714285724,0.4913801167591759,0.5391349446375489,-1.5222250516368234,1.167739823202016
mweMgSlGM2VxThhwnupYxYzUbR23,-6.520596577589859,-41.75256946485005,0.035966402878167596,1.333333333333334,-0.4571428571428575,0.0700878150820085,0.8359677768042746,-17.058823529411754,4.4684335272570594
mwsliuPsLFhRFjtjQwYkqcCRDvi2,-17.91039616690242,-121.11032633081982,0.055444555444555454,2.0,-0.5714285714285708,0.19314829457856791,0.9150510241218227,-13.68076368076369,3.83188240331097
nHy6rdfyacWW9BnyDb1dNvNYWfh1,0.296711486841323,-24.93214594249073,0.05333589362731913,-3.9999999999999982,0.4571428571428573,0.0988463713040041,0.6274104476515319,26.22763709720232,-6.737879098127547
nT1qJOiMyDdJ9ui4el195A8Hsgs1,-10.334569133570083,-281.29300186165676,0.029638694638694646,-4.333333333333334,1.171428571428572,-0.003983049213725701,0.49029860815572446,4.419191919191917,-1.655844155844156
o4jXmZcjtMVF2ZInToRpVHUhpdV2,-6.510898185925598,-83.26583928249975,0.011894246104772426,-4.666666666666666,1.0285714285714291,0.06007278385572244,0.3929974294402498,10.674413305992246,-2.856166390000982
ohl9pXqpeSMfepC3w9h0tW5SbJw1,-11.208414661235935,-48.58851773226454,0.05379620379620381,2.0,-0.7428571428571422,0.37207785471583577,1.2266958122740519,-12.049062049062059,4.6444032158317885
pFlYc8DBmSXkvMIRgXFxvo3JB6j1,-8.31909321868293,-155.2646860976141,0.044581706413716116,-5.666666666666666,1.2857142857142863,0.046248223709413415,0.7122017687370311,13.183113183113178,-5.410145410145412
pRQimOpZtsekBI2I1kbnD3pycmo1,-26.335564436117277,-295.93392191086446,0.0586788211788212,-1.0,0.028571428571428845,-0.02818071821039904,0.5207706652644108,-0.4173604173604133,1.5867941582227318
pYrcE6tMnVQP1kHAjYwvIz5NOvn1,-0.6843326523664568,4.197101607973678,0.048577179614331334,2.9999999999999982,-1.3428571428571439,0.025296980411405736,0.6231785781645698,-8.458330168856477,1.4007149909405496
pcbRW89vVJcviD87V3uxyG4I9st2,-7.489547283703142,-121.06246208211665,0.01626048530073299,-1.666666666666666,0.08571428571428533,0.16508293391781034,0.6203374532863867,-4.882154882154893,0.9379509379509441
q0Atnpm0jZS5swcVmq0EMalQUKw1,-13.355767940979227,-80.68113553114037,0.05744255744255746,1.0,-0.257142857142857,0.5827150537877234,1.30070119745394,-7.187257187257174,1.7815517815517843
qZZiI6GzgxOrpQDGu42ZA0xsGEJ2,-3.8661125480758343,-4.814539808364543,0.003215504839563775,,-59.99999999999993,0.25103710561394366,0.6692799972588827,,
qnR5PLX1v3fPi6SwTJMwGcadwyD3,-6.767546064982956,-46.06807937694469,0.04084161452582506,4.666666666666666,-0.742857142857143,-0.04825794245894576,0.4096019777797655,-14.699627857522586,1.5060378218272934
qsRKc69hK6e8Uu6vr2pBO8NbpMt2,-18.111460564751344,-241.303185600087,0.040736009776257465,-2.333333333333334,0.8285714285714281,0.16224554386482287,0.7090711582276497,0.6734006734006783,0.9435009435009458
rFV2EUbp64f5ORSh7DqwmCQmeqT2,-6.150874860036601,-62.4656001076164,0.030312125520036277,-1.6666666666666679,-0.7142857142857141,0.3605810942859633,0.7969908691906649,-8.774558774558756,4.193663479377767
rNe3cRPepZUXbJhmmfQZiGsVzX22,-15.328863139388488,-6.412410334194978,0.038665663093580716,12.666666666666666,-4.742857142857144,0.08449677934548812,0.656549568747013,-22.25938312894835,6.8960025481764635
rUuJv5gl7dWVo7UPQWMx4bohxhK2,-10.72694926796071,-154.16746761946465,0.03391789878059901,-2.9999999999999982,1.0000000000000004,0.34290552141642894,0.6831051241928495,13.61737677527151,-5.134264232008592
roaf78tUWxWSEjAUcUu8O7mrQbl1,-15.568913365110147,-240.03778687138313,0.05207374325021385,-2.0,0.4000000000000004,0.20299890962844588,0.5085146501685395,4.81283422459893,-0.4383851442674948
s48aCkolCSNbBRSSRPle0r61a7H2,18.193968540199783,12.50932790245559,0.021567458170833703,,33.5,-0.044675773486535134,0.5209079632393153,,
s5gTyWKzfkdHXNT3qicwPmdONYv1,-5.266190811065638,-41.44968099836969,0.025215891779359286,0.6666666666666661,-0.6857142857142867,0.10000259053394145,0.8846841300508206,-0.7407407407407618,1.38528138528139
sqfXvh6GJLaYAqr3RvHrixP8IOx1,-14.755299132007657,-111.52959026535319,0.021875161875161895,6.0,-1.5428571428571412,0.18151709648954506,0.9088827938560269,-18.88111888111888,4.855144855144855
ssPK6ISW0HerTGke9hznqJ2LpKu1,-3.373105661128704,-41.776146898028294,0.049785237981832424,-1.0,-0.14285714285714277,0.0073784871518039535,0.6505694476148545,4.4914344914344895,-2.0891806606092347
tB4wPBbnWJUXeOC3Zxjph0Esgjf1,2.6727094284585893,-30.046714678797116,0.05061883196894639,-1.0,0.31428571428571567,0.030014856440521633,0.5921298327869097,8.557625948930287,-3.833185448092283
tPxs1KmmX0ZKjHS9Nr63xoOPCRr2,-27.74931676852077,-229.07676767983756,0.034632034632034646,-0.33333333333333215,0.14285714285714357,0.1866338035632948,0.9227212775846251,3.030303030303017,-1.2987012987013016
tv88wS5Nf6SjruozSmXJxQSmx6J3,-18.52137082194495,-112.94052322547293,0.04967948717948719,-1.6666666666666679,0.42857142857142944,0.2681411851543105,0.7206070361698155,3.7950937950937913,-2.2795299938157028
u64Uf920g5VD9Byq26LT2rs5o4t1,-3.557993886977696,-91.71964445006999,0.04118353939325806,4.333333333333334,-0.8285714285714284,0.3238101229048447,0.6458051289435137,-5.558209906035998,-0.4831193651069443
uM3kxG78g5ZtXtbAEzZyM4XFmaI3,-39.77850426085618,-157.25133082587453,0.04644130379424497,1.0,-0.37142857142857144,0.3727547037017113,1.242876504825905,-6.050893550893534,2.108011036582464
v8nNKiWvPdcjiHXZci39OuFTY6M2,-7.779984962401619,-271.0978627493004,0.06022139625080803,0.6666666666666661,-0.05714285714285721,0.2815658409630973,0.8659981014012259,-2.9761904761904816,0.08503401360544725
wdppvL4tIkVlGjou6aYzzjlaZXB2,-1.8144927475580663,-49.60275799068615,0.0050817085748068635,,35.0,0.37150171055653336,0.6223701159843466,,
wkhxvE50megJGMA1EiROSZIJWNq1,-9.52180268390808,-82.88407689341174,0.05375977789770895,6.000000000000002,-0.7428571428571425,0.24034270596867005,0.7975828501469334,-20.923520923520925,3.4584463155891685
xBGZhFOeypWnqzSQClkrwV9z2vF3,-0.9034092489778458,-58.24220446220855,0.05776307026307027,-0.6666666666666679,-0.0571428571428562,0.24762328306427764,0.8076689580870259,3.0303030303030454,0.6060606060606044
xFaL2YdAmJcWA8oTLXhVCHNqt0K3,-4.596283925942185,-50.66277514968808,0.04117434852728972,-9.666666666666666,1.3428571428571439,0.13230286836014268,0.6969303939888625,19.120879120879124,-4.0858189429618035
xHctBv4C2EU8rHYRouw0btT3GT02,-4.572088735234633,-74.04324561603856,0.040990790255496144,-6.0,1.771428571428571,0.2297136637777215,0.8346937005726457,20.239791073124415,-6.461593961593957
xyAILKfYP2M8GqAai11x6NT7IcP2,-11.810361336946785,-102.13415076151661,0.049432146800567865,-1.6666666666666679,0.4285714285714292,0.5775478808854659,0.7685976624964754,-0.6876456876456842,0.24342324342323973
y1EHXv8tUTa4BRS4fRio7bULYfA2,-6.40668724581609,-69.33916800235731,0.0431967602401039,-1.0,-0.25714285714285723,0.04195705299341889,0.39254854080746104,-0.1424501424501301,-1.2576312576312578
yGTid3RXTdQe5JNosdSxvgktWIW2,-21.199546464134226,-66.7872743909612,0.056410256410256425,1.666666666666666,-0.5428571428571424,0.26708030197397364,1.153724538436811,-11.15551115551115,3.5488321202606885
yatBVTBMCSMp0wJluOCLzTFKMyP2,-14.734766682584407,-71.38197480616496,0.0627990473578709,3.0000000000000018,-1.1142857142857137,0.3629487897580217,0.9099531681532311,-5.338044308632533,1.4346647750009105
yfjd8LbAMrYeG54927d3GiKAyXI2,-9.395441267593158,-75.61986366574486,0.05238593106240166,2.666666666666668,-1.1428571428571426,0.37528758350974756,0.8953730352004426,-14.113990584578843,6.261973320796851
zw1w9FipI9RjJsuhHse6UZavBxs2,-7.679710569618838,-40.84955983558716,0.04069767378590909,11.999999999999998,-2.914285714285716,0.0909524142503304,0.913115597523797,-4.142734534891403,3.1352743117449036
zxG9mUnF7uRkaOKSoCPsiRZzr372,0.6337181226146809,-113.8768544565312,0.04194943377168442,9.333333333333334,-2.4571428571428573,0.026095765392429752,0.5776330635690005,-21.212121212121218,4.87012987012987
