participantId,testName,duration_seconds,n_trials,acc_t1,rt2_soa_1200,rt2_soa_600,rt2_soa_50,rt2_soa_150,acc_t2,mrt_t1,mrt_t2,stroop_effect,accuracy,mrt_incong,mrt_total,mrt_cong,total,conceptualLevelResponses,nonPerseverativeErrorCount,perseverativeResponses,trialsToFirstConceptualResp,totalTrialCount,totalCorrectCount,timestamp,conceptualLevelResponsesPercent,completedCategories,totalErrorCount,perseverativeErrorCount,trialsToCompleteFirstCategory,learningToLearn,perseverativeResponsesPercent,failureToMaintainSet,rt2_soa_300,learningToLearnHeatonClrDelta,learningEfficiencyDeltaTrials,hasFirstCLR,trialsToFirstConceptualResp0,categoryClrPercents
GE4hogtdLdTFbNasENgtm6SO3hC3,prp,319.0,120.0,99.16666666666669,630.0,653.0,1148.0,1072.0,98.33333333333331,1140.0,871.0,,,,,,,,,,,,,,,,,,,,,,870.0,,,,,
GE4hogtdLdTFbNasENgtm6SO3hC3,stroop,199.0,,,,,,,,,,167.0,96.29629629629628,1267.0,1197.0,1100.0,108.0,,,,,,,,,,,,,,,,,,,,,
GE4hogtdLdTFbNasENgtm6SO3hC3,wcst,191.0,,,,,,,,,,,,,,,,60.0,4.0,11.0,5.0,67.0,60.0,2025-09-01T21:17:49.018,89.55223880597015,6.0,7.0,3.0,12.0,,16.417910447761194,0.0,,-2.1367521367521363,-0.3333333333333339,True,4.0,"[83.33333333333334, 90.9090909090909, 100, 76.92307692307693, 90.9090909090909, 100]"
ORvIk1xRWIQmKuLVe6GXNouvAXx2,prp,331.0,120.0,95.83333333333331,581.0,806.0,1311.0,1049.0,93.33333333333331,889.0,975.0,,,,,,,,,,,,,,,,,,,,,,1137.0,,,,,
ORvIk1xRWIQmKuLVe6GXNouvAXx2,stroop,172.0,,,,,,,,,,293.0,96.29629629629628,1116.0,965.0,823.0,108.0,,,,,,,,,,,,,,,,,,,,,
ORvIk1xRWIQmKuLVe6GXNouvAXx2,wcst,369.0,,,,,,,,,,,,,,,,66.0,7.0,37.0,3.0,101.0,77.0,2025-09-03T16:47:43.091,65.34653465346535,6.0,24.0,17.0,10.0,,36.63366336633664,0.0,,-20.75977162933684,-8.999999999999998,True,2.0,"[100, 83.33333333333334, 66.66666666666666, 43.47826086956522, 53.333333333333336, 90.9090909090909]"
80UJMJbCOMgs6YVpsMgXfYTzw6o2,prp,310.0,120.0,100.0,522.0,658.0,1086.0,956.0,95.83333333333331,822.0,814.0,,,,,,,,,,,,,,,,,,,,,,823.0,,,,,
80UJMJbCOMgs6YVpsMgXfYTzw6o2,stroop,149.0,,,,,,,,,,74.0,100.0,773.0,747.0,699.0,108.0,,,,,,,,,,,,,,,,,,,,,
80UJMJbCOMgs6YVpsMgXfYTzw6o2,wcst,175.0,,,,,,,,,,,,,,,,60.0,5.0,19.0,6.0,71.0,61.0,2025-09-03T20:55:16.297,84.50704225352112,6.0,10.0,5.0,13.0,,26.76056338028169,0.0,,7.187257187257174,1.0,True,5.0,"[76.92307692307693, 83.33333333333334, 83.33333333333334, 83.33333333333334, 90.9090909090909, 90.9090909090909]"
rUuJv5gl7dWVo7UPQWMx4bohxhK2,prp,438.0,120.0,85.0,1098.0,1702.0,1950.0,1982.0,86.66666666666667,1515.0,1662.0,,,,,,,,,,,,,,,,,,,,,,1675.0,,,,,
rUuJv5gl7dWVo7UPQWMx4bohxhK2,stroop,211.0,,,,,,,,,,397.0,97.2222222222222,1471.0,1310.0,1074.0,108.0,,,,,,,,,,,,,,,,,,,,,
rUuJv5gl7dWVo7UPQWMx4bohxhK2,wcst,271.0,,,,,,,,,,,,,,,,71.0,6.0,22.0,3.0,89.0,74.0,2025-09-03T21:14:46.806,79.7752808988764,6.0,15.0,9.0,10.0,,24.719101123595504,2.0,,-13.61737677527151,-2.9999999999999982,True,2.0,"[100, 78.94736842105263, 90.9090909090909, 90.9090909090909, 66.66666666666666, 71.42857142857143]"
xyAILKfYP2M8GqAai11x6NT7IcP2,prp,349.0,120.0,100.0,609.0,792.0,1544.0,1536.0,99.16666666666669,1044.0,1135.0,,,,,,,,,,,,,,,,,,,,,,1174.0,,,,,
xyAILKfYP2M8GqAai11x6NT7IcP2,stroop,173.0,,,,,,,,,,204.0,100.0,1135.0,981.0,931.0,108.0,,,,,,,,,,,,,,,,,,,,,
xyAILKfYP2M8GqAai11x6NT7IcP2,wcst,205.0,,,,,,,,,,,,,,,,63.0,5.0,22.0,5.0,81.0,68.0,2025-09-06T10:27:38.890,77.77777777777779,6.0,13.0,8.0,12.0,,27.160493827160494,0.0,,0.6876456876456842,-1.666666666666668,True,4.0,"[83.33333333333334, 76.92307692307693, 76.92307692307693, 83.33333333333334, 65, 90.9090909090909]"
pcbRW89vVJcviD87V3uxyG4I9st2,prp,305.0,120.0,98.33333333333331,515.0,810.0,907.0,890.0,96.66666666666669,937.0,751.0,,,,,,,,,,,,,,,,,,,,,,641.0,,,,,
pcbRW89vVJcviD87V3uxyG4I9st2,stroop,138.0,,,,,,,,,,91.0,99.07407407407408,701.0,650.0,610.0,108.0,,,,,,,,,,,,,,,,,,,,,
pcbRW89vVJcviD87V3uxyG4I9st2,wcst,178.0,,,,,,,,,,,,,,,,66.0,2.0,14.0,3.0,71.0,67.0,2025-09-08T19:40:11.807,92.95774647887325,6.0,4.0,2.0,10.0,,19.718309859154928,1.0,,4.882154882154893,-1.666666666666666,True,2.0,"[100, 90.9090909090909, 83.33333333333334, 88.88888888888889, 100, 100]"
8cOQBMgQEYSlJ4CK60pFMmBVEBV2,prp,369.0,120.0,100.0,844.0,1012.0,1717.0,1452.0,100.0,1089.0,1303.0,,,,,,,,,,,,,,,,,,,,,,1487.0,,,,,
8cOQBMgQEYSlJ4CK60pFMmBVEBV2,stroop,189.0,,,,,,,,,,317.0,99.07407407407408,1325.0,1129.0,1008.0,108.0,,,,,,,,,,,,,,,,,,,,,
8cOQBMgQEYSlJ4CK60pFMmBVEBV2,wcst,302.0,,,,,,,,,,,,,,,,60.0,22.0,23.0,31.0,98.0,70.0,2025-09-10T15:09:49.241,61.224489795918366,6.0,28.0,6.0,38.0,,23.46938775510204,0.0,,19.394348341716764,8.666666666666668,True,30.0,"[26.31578947368421, 83.33333333333334, 83.33333333333334, 90.9090909090909, 76.92307692307693, 83.33333333333334]"
yatBVTBMCSMp0wJluOCLzTFKMyP2,prp,401.0,120.0,87.5,820.0,996.0,1645.0,1864.0,83.33333333333333,1177.0,1399.0,,,,,,,,,,,,,,,,,,,,,,1560.0,,,,,
yatBVTBMCSMp0wJluOCLzTFKMyP2,stroop,170.0,,,,,,,,,,34.0,100.0,990.0,958.0,956.0,108.0,,,,,,,,,,,,,,,,,,,,,
yatBVTBMCSMp0wJluOCLzTFKMyP2,wcst,251.0,,,,,,,,,,,,,,,,64.0,14.0,25.0,6.0,91.0,67.0,2025-09-12T15:37:32.623,70.32967032967034,6.0,24.0,10.0,21.0,,27.472527472527474,0.0,,5.338044308632533,3.0000000000000018,True,5.0,"[66.66666666666666, 83.33333333333334, 58.82352941176471, 62.5, 90.9090909090909, 71.42857142857143]"
u64Uf920g5VD9Byq26LT2rs5o4t1,prp,300.0,120.0,100.0,436.0,556.0,1058.0,814.0,100.0,860.0,745.0,,,,,,,,,,,,,,,,,,,,,,862.0,,,,,
u64Uf920g5VD9Byq26LT2rs5o4t1,stroop,146.0,,,,,,,,,,98.0,100.0,783.0,742.0,684.0,108.0,,,,,,,,,,,,,,,,,,,,,
u64Uf920g5VD9Byq26LT2rs5o4t1,wcst,266.0,,,,,,,,,,,,,,,,84.0,3.0,46.0,4.0,107.0,90.0,2025-09-17T16:35:50.594,78.50467289719626,6.0,17.0,14.0,11.0,,42.99065420560748,0.0,,5.558209906035998,4.333333333333334,True,3.0,"[90.9090909090909, 71.42857142857143, 71.42857142857143, 90.9090909090909, 82.6086956521739, 76.92307692307693]"
nT1qJOiMyDdJ9ui4el195A8Hsgs1,prp,355.0,120.0,96.66666666666669,647.0,1056.0,1573.0,1464.0,98.33333333333331,881.0,1201.0,,,,,,,,,,,,,,,,,,,,,,1234.0,,,,,
nT1qJOiMyDdJ9ui4el195A8Hsgs1,stroop,174.0,,,,,,,,,,112.0,100.0,1037.0,991.0,925.0,108.0,,,,,,,,,,,,,,,,,,,,,
nT1qJOiMyDdJ9ui4el195A8Hsgs1,wcst,264.0,,,,,,,,,,,,,,,,69.0,2.0,20.0,3.0,79.0,70.0,2025-09-18T15:43:29.044,87.34177215189874,6.0,9.0,7.0,10.0,,25.31645569620253,1.0,,-4.419191919191917,-4.333333333333334,True,2.0,"[100, 83.33333333333334, 90.9090909090909, 90.9090909090909, 79.16666666666666, 90.9090909090909]"
cUugYJoOmOSFc0Mh5JD0ZXJrYN52,prp,301.0,120.0,94.16666666666669,507.0,666.0,915.0,915.0,92.5,1063.0,752.0,,,,,,,,,,,,,,,,,,,,,,775.0,,,,,
cUugYJoOmOSFc0Mh5JD0ZXJrYN52,stroop,141.0,,,,,,,,,,218.0,96.29629629629628,817.0,695.0,599.0,108.0,,,,,,,,,,,,,,,,,,,,,
cUugYJoOmOSFc0Mh5JD0ZXJrYN52,wcst,288.0,,,,,,,,,,,,,,,,96.0,7.0,34.0,3.0,119.0,102.0,2025-09-21T00:44:07.149,80.67226890756302,6.0,17.0,10.0,10.0,,28.57142857142857,3.0,,-18.518518518518505,-19.0,True,2.0,"[100, 90.9090909090909, 100, 73.01587301587301, 90.9090909090909, 71.42857142857143]"
2h5FgHUEvBS1twD5DqbTIRrMm1f2,prp,317.0,120.0,100.0,518.0,868.0,1152.0,1023.0,96.66666666666669,916.0,878.0,,,,,,,,,,,,,,,,,,,,,,835.0,,,,,
2h5FgHUEvBS1twD5DqbTIRrMm1f2,stroop,149.0,,,,,,,,,,144.0,99.07407407407408,864.0,771.0,720.0,108.0,,,,,,,,,,,,,,,,,,,,,
2h5FgHUEvBS1twD5DqbTIRrMm1f2,wcst,323.0,,,,,,,,,,,,,,,,69.0,9.0,36.0,5.0,99.0,77.0,2025-09-25T15:29:22.937,69.6969696969697,6.0,22.0,13.0,12.0,,36.36363636363637,0.0,,1.2142178808845472,-3.666666666666666,True,4.0,"[83.33333333333334, 55.55555555555556, 71.42857142857143, 76.92307692307693, 66.66666666666666, 70.37037037037037]"
lpzDdvuMkKWkPxu6xeclmdctEp42,prp,337.0,120.0,96.66666666666669,810.0,766.0,1221.0,1325.0,97.5,1169.0,1037.0,,,,,,,,,,,,,,,,,,,,,,1053.0,,,,,
lpzDdvuMkKWkPxu6xeclmdctEp42,stroop,158.0,,,,,,,,,,103.0,100.0,906.0,838.0,802.0,108.0,,,,,,,,,,,,,,,,,,,,,
lpzDdvuMkKWkPxu6xeclmdctEp42,wcst,212.0,,,,,,,,,,,,,,,,69.0,4.0,30.0,6.0,84.0,71.0,2025-09-26T23:44:33.544,82.14285714285714,6.0,13.0,9.0,13.0,,35.714285714285715,1.0,,-0.6216006216006207,3.333333333333332,True,5.0,"[76.92307692307693, 83.33333333333334, 86.36363636363636, 90.9090909090909, 76.92307692307693, 76.92307692307693]"
iv9ew8Ci8lOzvXFiJw1acJfuRAl2,prp,349.0,120.0,90.83333333333331,899.0,1176.0,1231.0,1176.0,94.16666666666669,872.0,1139.0,,,,,,,,,,,,,,,,,,,,,,1193.0,,,,,
iv9ew8Ci8lOzvXFiJw1acJfuRAl2,stroop,178.0,,,,,,,,,,409.0,98.14814814814817,1277.0,1024.0,868.0,108.0,,,,,,,,,,,,,,,,,,,,,
iv9ew8Ci8lOzvXFiJw1acJfuRAl2,wcst,232.0,,,,,,,,,,,,,,,,60.0,7.0,25.0,4.0,79.0,63.0,2025-09-27T13:40:09.703,75.9493670886076,6.0,16.0,9.0,11.0,,31.64556962025317,0.0,,-1.2025012025012105,0.3333333333333339,True,3.0,"[90.9090909090909, 55.55555555555556, 90.9090909090909, 71.42857142857143, 71.42857142857143, 90.9090909090909]"
A9AEg0g6c2P1Bk72HLmnK3oWJ9B2,prp,314.0,120.0,100.0,507.0,746.0,1119.0,1076.0,97.5,905.0,856.0,,,,,,,,,,,,,,,,,,,,,,841.0,,,,,
A9AEg0g6c2P1Bk72HLmnK3oWJ9B2,stroop,159.0,,,,,,,,,,127.0,100.0,961.0,861.0,834.0,108.0,,,,,,,,,,,,,,,,,,,,,
A9AEg0g6c2P1Bk72HLmnK3oWJ9B2,wcst,210.0,,,,,,,,,,,,,,,,60.0,7.0,24.0,15.0,82.0,66.0,2025-09-28T01:31:09.966,73.17073170731707,6.0,16.0,9.0,22.0,,29.268292682926827,0.0,,12.62626262626263,3.333333333333334,True,14.0,"[45.45454545454545, 90.9090909090909, 76.92307692307693, 90.9090909090909, 83.33333333333334, 76.92307692307693]"
7cvQFrzIDEVAkFCcGAHZPUvJ2MF3,prp,322.0,120.0,99.16666666666669,479.0,701.0,1278.0,1180.0,98.33333333333331,1036.0,920.0,,,,,,,,,,,,,,,,,,,,,,990.0,,,,,
7cvQFrzIDEVAkFCcGAHZPUvJ2MF3,stroop,190.0,,,,,,,,,,146.0,100.0,1180.0,1137.0,1035.0,108.0,,,,,,,,,,,,,,,,,,,,,
7cvQFrzIDEVAkFCcGAHZPUvJ2MF3,wcst,213.0,,,,,,,,,,,,,,,,60.0,6.0,22.0,9.0,76.0,64.0,2025-09-28T22:18:35.877,78.94736842105263,6.0,12.0,6.0,16.0,,28.94736842105264,0.0,,6.944444444444457,1.333333333333334,True,8.0,"[62.5, 90.9090909090909, 76.92307692307693, 90.9090909090909, 83.33333333333334, 76.92307692307693]"
Qg9GDwQ9hBNkDLt50CNLd4NqRlX2,prp,413.0,120.0,95.83333333333331,1398.0,1476.0,2038.0,1866.0,98.33333333333331,1719.0,1663.0,,,,,,,,,,,,,,,,,,,,,,1549.0,,,,,
Qg9GDwQ9hBNkDLt50CNLd4NqRlX2,stroop,194.0,,,,,,,,,,95.0,100.0,1242.0,1182.0,1147.0,108.0,,,,,,,,,,,,,,,,,,,,,
Qg9GDwQ9hBNkDLt50CNLd4NqRlX2,wcst,243.0,,,,,,,,,,,,,,,,60.0,1.0,18.0,3.0,69.0,61.0,2025-09-30T13:56:50.208,86.95652173913044,6.0,8.0,7.0,10.0,,26.08695652173913,0.0,,0.9379509379509444,0.3333333333333321,True,2.0,"[100, 71.42857142857143, 90.9090909090909, 90.9090909090909, 90.9090909090909, 83.33333333333334]"
LliUMEIsrCVZ88YFQfevan2Og4z1,prp,300.0,120.0,100.0,537.0,680.0,979.0,844.0,92.5,881.0,754.0,,,,,,,,,,,,,,,,,,,,,,751.0,,,,,
LliUMEIsrCVZ88YFQfevan2Og4z1,stroop,129.0,,,,,,,,,,107.0,98.14814814814817,636.0,584.0,529.0,108.0,,,,,,,,,,,,,,,,,,,,,
LliUMEIsrCVZ88YFQfevan2Og4z1,wcst,211.0,,,,,,,,,,,,,,,,72.0,5.0,34.0,3.0,97.0,79.0,2025-10-04T23:11:36.776,74.22680412371135,6.0,18.0,13.0,10.0,,35.051546391752574,0.0,,4.884135472370758,3.666666666666666,True,2.0,"[100, 48.484848484848484, 90.9090909090909, 86.66666666666667, 76.47058823529412, 90.9090909090909]"
aj2Ivskb3BgyvBNTLIKlSZG0Sq22,prp,335.0,120.0,100.0,719.0,919.0,1404.0,1235.0,95.83333333333331,1118.0,1067.0,,,,,,,,,,,,,,,,,,,,,,1087.0,,,,,
aj2Ivskb3BgyvBNTLIKlSZG0Sq22,stroop,153.0,,,,,,,,,,-35.0,100.0,830.0,813.0,864.0,108.0,,,,,,,,,,,,,,,,,,,,,
aj2Ivskb3BgyvBNTLIKlSZG0Sq22,wcst,254.0,,,,,,,,,,,,,,,,87.0,11.0,36.0,3.0,119.0,95.0,2025-10-12T22:00:14.237,73.10924369747899,6.0,24.0,13.0,39.0,,30.252100840336134,1.0,,21.00815850815852,13.666666666666668,True,2.0,"[66.66666666666666, 65.38461538461539, 66.66666666666666, 87.5, 90.9090909090909, 83.33333333333334]"
nHy6rdfyacWW9BnyDb1dNvNYWfh1,prp,330.0,120.0,92.5,558.0,1108.0,1089.0,1044.0,95.83333333333331,1315.0,943.0,,,,,,,,,,,,,,,,,,,,,,950.0,,,,,
nHy6rdfyacWW9BnyDb1dNvNYWfh1,stroop,164.0,,,,,,,,,,275.0,99.07407407407408,1040.0,896.0,765.0,108.0,,,,,,,,,,,,,,,,,,,,,
nHy6rdfyacWW9BnyDb1dNvNYWfh1,wcst,277.0,,,,,,,,,,,,,,,,66.0,7.0,38.0,4.0,98.0,70.0,2025-12-11T15:34:35.283,67.3469387755102,6.0,28.0,21.0,18.0,,38.775510204081634,1.0,,-26.22763709720232,-3.9999999999999982,True,3.0,"[88.88888888888889, 83.33333333333334, 76.92307692307693, 43.47826086956522, 71.42857142857143, 55.55555555555556]"
iZScIvzhvAdvlsBXU5D8IHwvG6Q2,prp,340.0,120.0,99.16666666666669,868.0,769.0,1146.0,1242.0,98.33333333333331,1184.0,1018.0,,,,,,,,,,,,,,,,,,,,,,1074.0,,,,,
iZScIvzhvAdvlsBXU5D8IHwvG6Q2,stroop,220.0,,,,,,,,,,229.0,98.14814814814817,1557.0,1390.0,1328.0,108.0,,,,,,,,,,,,,,,,,,,,,
iZScIvzhvAdvlsBXU5D8IHwvG6Q2,wcst,647.0,,,,,,,,,,,,,,,,65.0,22.0,45.0,3.0,126.0,84.0,2025-10-13T16:51:08.873,51.5873015873016,6.0,42.0,20.0,10.0,,35.714285714285715,1.0,,-39.27738927738928,-19.333333333333336,True,2.0,"[100, 90.9090909090909, 76.92307692307693, 25, 62.5, 62.5]"
jpklrtZKDdb3UbsoQ7Ho5KuR5yb2,prp,336.0,120.0,99.16666666666669,635.0,811.0,1252.0,1222.0,99.16666666666669,1113.0,1006.0,,,,,,,,,,,,,,,,,,,,,,1114.0,,,,,
jpklrtZKDdb3UbsoQ7Ho5KuR5yb2,stroop,189.0,,,,,,,,,,165.0,98.14814814814817,1180.0,1116.0,1015.0,108.0,,,,,,,,,,,,,,,,,,,,,
jpklrtZKDdb3UbsoQ7Ho5KuR5yb2,wcst,215.0,,,,,,,,,,,,,,,,60.0,2.0,14.0,4.0,64.0,60.0,2025-10-23T22:34:33.450,93.75,6.0,4.0,2.0,11.0,,21.875,0.0,,5.555555555555543,0.6666666666666661,True,3.0,"[90.9090909090909, 100, 83.33333333333334, 100, 90.9090909090909, 100]"
K26uNuY0VNPjJNF26wEx3bFg0kr2,prp,326.0,120.0,95.83333333333331,563.0,834.0,1183.0,944.0,94.16666666666669,1137.0,898.0,,,,,,,,,,,,,,,,,,,,,,980.0,,,,,
K26uNuY0VNPjJNF26wEx3bFg0kr2,stroop,150.0,,,,,,,,,,89.0,99.07407407407408,793.0,758.0,705.0,108.0,,,,,,,,,,,,,,,,,,,,,
K26uNuY0VNPjJNF26wEx3bFg0kr2,wcst,156.0,,,,,,,,,,,,,,,,60.0,0.0,26.0,3.0,70.0,63.0,2025-10-23T23:03:26.631,85.71428571428571,6.0,7.0,7.0,10.0,,37.142857142857146,0.0,,-9.523809523809518,-1.333333333333334,True,2.0,"[100, 83.33333333333334, 90.9090909090909, 90.9090909090909, 71.42857142857143, 83.33333333333334]"
pFlYc8DBmSXkvMIRgXFxvo3JB6j1,prp,404.0,120.0,87.5,963.0,1309.0,1787.0,1646.0,87.5,1228.0,1451.0,,,,,,,,,,,,,,,,,,,,,,1610.0,,,,,
pFlYc8DBmSXkvMIRgXFxvo3JB6j1,stroop,151.0,,,,,,,,,,68.0,100.0,832.0,789.0,764.0,108.0,,,,,,,,,,,,,,,,,,,,,
pFlYc8DBmSXkvMIRgXFxvo3JB6j1,wcst,207.0,,,,,,,,,,,,,,,,68.0,1.0,31.0,3.0,85.0,70.0,2025-10-25T22:29:57.524,80.0,6.0,15.0,14.0,10.0,,36.47058823529412,0.0,,-13.183113183113178,-5.666666666666666,True,2.0,"[100, 76.92307692307693, 90.9090909090909, 81.81818181818183, 90.9090909090909, 55.55555555555556]"
DPvStUYSmohmXwFwaKRqHv89R3k1,prp,330.0,120.0,98.33333333333331,529.0,788.0,1309.0,1220.0,96.66666666666669,885.0,987.0,,,,,,,,,,,,,,,,,,,,,,1075.0,,,,,
DPvStUYSmohmXwFwaKRqHv89R3k1,stroop,174.0,,,,,,,,,,218.0,97.2222222222222,1133.0,992.0,915.0,108.0,,,,,,,,,,,,,,,,,,,,,
DPvStUYSmohmXwFwaKRqHv89R3k1,wcst,164.0,,,,,,,,,,,,,,,,60.0,0.0,18.0,3.0,63.0,60.0,2025-10-27T15:42:32.360,95.23809523809524,6.0,3.0,3.0,10.0,,28.57142857142857,0.0,,3.030303030303017,0.3333333333333321,True,2.0,"[100, 90.9090909090909, 90.9090909090909, 100, 100, 90.9090909090909]"
K7ykiXe6CqQUKpEzs2nYrMTVuDA2,prp,314.0,120.0,100.0,514.0,633.0,1161.0,1019.0,97.5,791.0,854.0,,,,,,,,,,,,,,,,,,,,,,936.0,,,,,
K7ykiXe6CqQUKpEzs2nYrMTVuDA2,stroop,146.0,,,,,,,,,,82.0,100.0,784.0,736.0,701.0,108.0,,,,,,,,,,,,,,,,,,,,,
K7ykiXe6CqQUKpEzs2nYrMTVuDA2,wcst,326.0,,,,,,,,,,,,,,,,60.0,17.0,25.0,23.0,93.0,69.0,2025-10-28T00:50:53.399,64.51612903225806,6.0,24.0,7.0,30.0,,26.881720430107524,0.0,,19.19191919191919,6.333333333333334,True,22.0,"[33.33333333333333, 83.33333333333334, 71.42857142857143, 71.42857142857143, 90.9090909090909, 83.33333333333334]"
62fAfeQc27bZelkPX7G54T3gvci2,prp,366.0,120.0,100.0,809.0,1209.0,1497.0,1533.0,99.16666666666669,1179.0,1267.0,,,,,,,,,,,,,,,,,,,,,,1286.0,,,,,
62fAfeQc27bZelkPX7G54T3gvci2,stroop,180.0,,,,,,,,,,190.0,98.14814814814817,1158.0,1023.0,968.0,108.0,,,,,,,,,,,,,,,,,,,,,
62fAfeQc27bZelkPX7G54T3gvci2,wcst,214.0,,,,,,,,,,,,,,,,60.0,2.0,16.0,6.0,70.0,62.0,2025-10-28T00:52:20.607,85.71428571428571,6.0,8.0,6.0,13.0,,22.857142857142858,0.0,,0.0,0.0,True,5.0,"[76.92307692307693, 90.9090909090909, 90.9090909090909, 90.9090909090909, 76.92307692307693, 90.9090909090909]"
q0Atnpm0jZS5swcVmq0EMalQUKw1,prp,308.0,120.0,95.83333333333331,460.0,573.0,1065.0,1048.0,97.5,889.0,806.0,,,,,,,,,,,,,,,,,,,,,,882.0,,,,,
q0Atnpm0jZS5swcVmq0EMalQUKw1,stroop,147.0,,,,,,,,,,58.0,99.07407407407408,803.0,751.0,745.0,108.0,,,,,,,,,,,,,,,,,,,,,
q0Atnpm0jZS5swcVmq0EMalQUKw1,wcst,184.0,,,,,,,,,,,,,,,,60.0,5.0,15.0,6.0,71.0,61.0,2025-10-28T15:28:23.212,84.50704225352112,6.0,10.0,5.0,13.0,,21.12676056338028,0.0,,7.187257187257174,1.0,True,5.0,"[76.92307692307693, 83.33333333333334, 83.33333333333334, 90.9090909090909, 90.9090909090909, 83.33333333333334]"
kR2rCtaPyPaj7YMizKUDn5xL2qx1,prp,339.0,120.0,95.83333333333331,637.0,794.0,1383.0,1406.0,97.5,1032.0,1055.0,,,,,,,,,,,,,,,,,,,,,,1082.0,,,,,
kR2rCtaPyPaj7YMizKUDn5xL2qx1,stroop,161.0,,,,,,,,,,289.0,97.2222222222222,1055.0,879.0,766.0,108.0,,,,,,,,,,,,,,,,,,,,,
kR2rCtaPyPaj7YMizKUDn5xL2qx1,wcst,201.0,,,,,,,,,,,,,,,,67.0,4.0,30.0,6.0,84.0,70.0,2025-10-28T15:37:15.611,79.76190476190477,6.0,14.0,10.0,13.0,,35.714285714285715,0.0,,5.699855699855675,-2.0,True,5.0,"[76.92307692307693, 83.33333333333334, 71.42857142857143, 80.95238095238095, 76.92307692307693, 90.9090909090909]"
dnkEqKuvjoQzAQm5yXlrAOp9ZlD3,prp,352.0,120.0,95.0,726.0,925.0,1516.0,1454.0,95.83333333333331,1095.0,1131.0,,,,,,,,,,,,,,,,,,,,,,1052.0,,,,,
dnkEqKuvjoQzAQm5yXlrAOp9ZlD3,stroop,156.0,,,,,,,,,,140.0,100.0,893.0,812.0,753.0,108.0,,,,,,,,,,,,,,,,,,,,,
dnkEqKuvjoQzAQm5yXlrAOp9ZlD3,wcst,277.0,,,,,,,,,,,,,,,,60.0,3.0,18.0,4.0,73.0,62.0,2025-10-28T16:50:40.438,82.1917808219178,6.0,11.0,8.0,11.0,,24.65753424657534,0.0,,1.5873015873015817,0.3333333333333339,True,3.0,"[90.9090909090909, 66.66666666666666, 90.9090909090909, 71.42857142857143, 90.9090909090909, 90.9090909090909]"
mwsliuPsLFhRFjtjQwYkqcCRDvi2,prp,328.0,120.0,97.5,581.0,887.0,1187.0,1097.0,95.83333333333331,948.0,950.0,,,,,,,,,,,,,,,,,,,,,,1031.0,,,,,
mwsliuPsLFhRFjtjQwYkqcCRDvi2,stroop,145.0,,,,,,,,,,-48.0,99.07407407407408,700.0,719.0,748.0,108.0,,,,,,,,,,,,,,,,,,,,,
mwsliuPsLFhRFjtjQwYkqcCRDvi2,wcst,175.0,,,,,,,,,,,,,,,,60.0,3.0,21.0,7.0,72.0,62.0,2025-10-28T20:20:24.224,83.33333333333334,6.0,10.0,7.0,14.0,,29.166666666666668,0.0,,13.68076368076369,2.0,True,6.0,"[71.42857142857143, 83.33333333333334, 76.92307692307693, 90.9090909090909, 90.9090909090909, 90.9090909090909]"
iKVZi0Oo96UrMBhPQMHWFcf55uA3,prp,353.0,120.0,96.66666666666669,801.0,951.0,1615.0,1285.0,94.16666666666669,1141.0,1190.0,,,,,,,,,,,,,,,,,,,,,,1290.0,,,,,
iKVZi0Oo96UrMBhPQMHWFcf55uA3,stroop,203.0,,,,,,,,,,130.0,96.29629629629628,1276.0,1234.0,1146.0,108.0,,,,,,,,,,,,,,,,,,,,,
iKVZi0Oo96UrMBhPQMHWFcf55uA3,wcst,187.0,,,,,,,,,,,,,,,,60.0,4.0,17.0,5.0,68.0,60.0,2025-10-29T14:06:47.689,88.23529411764706,6.0,8.0,4.0,12.0,,25.0,0.0,,-5.555555555555543,-0.6666666666666661,True,4.0,"[83.33333333333334, 90.9090909090909, 100, 83.33333333333334, 90.9090909090909, 83.33333333333334]"
Lhv9P8ZrkDSIB7BGwooAqfu8SGF3,prp,297.0,120.0,98.33333333333331,451.0,475.0,991.0,874.0,100.0,698.0,708.0,,,,,,,,,,,,,,,,,,,,,,748.0,,,,,
Lhv9P8ZrkDSIB7BGwooAqfu8SGF3,stroop,143.0,,,,,,,,,,2.0,100.0,719.0,701.0,717.0,108.0,,,,,,,,,,,,,,,,,,,,,
Lhv9P8ZrkDSIB7BGwooAqfu8SGF3,wcst,172.0,,,,,,,,,,,,,,,,60.0,2.0,19.0,5.0,71.0,63.0,2025-10-31T16:34:38.773,84.50704225352112,6.0,8.0,6.0,12.0,,26.76056338028169,0.0,,-5.555555555555557,-1.0,True,4.0,"[83.33333333333334, 90.9090909090909, 90.9090909090909, 90.9090909090909, 90.9090909090909, 66.66666666666666]"
ssPK6ISW0HerTGke9hznqJ2LpKu1,prp,297.0,120.0,96.66666666666669,431.0,473.0,1006.0,799.0,95.83333333333331,693.0,684.0,,,,,,,,,,,,,,,,,,,,,,722.0,,,,,
ssPK6ISW0HerTGke9hznqJ2LpKu1,stroop,158.0,,,,,,,,,,134.0,100.0,905.0,835.0,771.0,108.0,,,,,,,,,,,,,,,,,,,,,
ssPK6ISW0HerTGke9hznqJ2LpKu1,wcst,199.0,,,,,,,,,,,,,,,,68.0,5.0,27.0,3.0,83.0,70.0,2025-11-03T18:54:07.045,81.92771084337349,6.0,13.0,8.0,15.0,,32.53012048192771,0.0,,-4.4914344914344895,-1.0,True,2.0,"[93.33333333333333, 76.92307692307693, 83.33333333333334, 77.77777777777779, 90.9090909090909, 71.42857142857143]"
qsRKc69hK6e8Uu6vr2pBO8NbpMt2,prp,319.0,120.0,97.5,577.0,852.0,1092.0,1117.0,94.16666666666669,829.0,902.0,,,,,,,,,,,,,,,,,,,,,,866.0,,,,,
qsRKc69hK6e8Uu6vr2pBO8NbpMt2,stroop,142.0,,,,,,,,,,93.0,96.29629629629628,744.0,689.0,651.0,108.0,,,,,,,,,,,,,,,,,,,,,
qsRKc69hK6e8Uu6vr2pBO8NbpMt2,wcst,226.0,,,,,,,,,,,,,,,,66.0,2.0,27.0,5.0,79.0,70.0,2025-11-03T18:56:38.047,83.54430379746836,6.0,9.0,7.0,12.0,,34.177215189873415,0.0,,-0.6734006734006783,-2.333333333333334,True,4.0,"[83.33333333333334, 76.92307692307693, 90.9090909090909, 76.92307692307693, 83.33333333333334, 88.88888888888889]"
5zxa5CMLGQSSonWOXqXf0QNS3PH3,prp,314.0,120.0,97.5,547.0,645.0,1131.0,1027.0,99.16666666666669,905.0,853.0,,,,,,,,,,,,,,,,,,,,,,920.0,,,,,
5zxa5CMLGQSSonWOXqXf0QNS3PH3,stroop,136.0,,,,,,,,,,128.0,99.07407407407408,705.0,641.0,577.0,108.0,,,,,,,,,,,,,,,,,,,,,
5zxa5CMLGQSSonWOXqXf0QNS3PH3,wcst,206.0,,,,,,,,,,,,,,,,67.0,6.0,26.0,7.0,87.0,74.0,2025-11-03T21:57:00.908,77.01149425287356,6.0,13.0,7.0,14.0,,29.88505747126437,0.0,,-6.744133059922547,-4.333333333333334,True,6.0,"[71.42857142857143, 90.9090909090909, 83.33333333333334, 83.33333333333334, 73.68421052631578, 68.42105263157895]"
h5RYP03wJuVN0xo7qAR8CKFxLaj1,prp,365.0,120.0,97.5,937.0,1127.0,1490.0,1285.0,95.83333333333331,1519.0,1260.0,,,,,,,,,,,,,,,,,,,,,,1440.0,,,,,
h5RYP03wJuVN0xo7qAR8CKFxLaj1,stroop,180.0,,,,,,,,,,296.0,99.07407407407408,1217.0,1023.0,921.0,108.0,,,,,,,,,,,,,,,,,,,,,
h5RYP03wJuVN0xo7qAR8CKFxLaj1,wcst,344.0,,,,,,,,,,,,,,,,64.0,34.0,24.0,23.0,126.0,82.0,2025-11-04T12:42:48.615,50.79365079365079,6.0,44.0,10.0,56.0,,19.047619047619047,0.0,,32.45920745920746,18.0,True,22.0,"[25, 45.45454545454545, 83.33333333333334, 76.92307692307693, 83.33333333333334, 90.9090909090909]"
CGyTPhevTbSvVnZ8qSP0NtWuhgw1,prp,319.0,120.0,100.0,532.0,793.0,1290.0,1040.0,100.0,833.0,889.0,,,,,,,,,,,,,,,,,,,,,,792.0,,,,,
CGyTPhevTbSvVnZ8qSP0NtWuhgw1,stroop,182.0,,,,,,,,,,398.0,99.07407407407408,1301.0,1057.0,903.0,108.0,,,,,,,,,,,,,,,,,,,,,
CGyTPhevTbSvVnZ8qSP0NtWuhgw1,wcst,238.0,,,,,,,,,,,,,,,,64.0,9.0,24.0,9.0,91.0,71.0,2025-11-13T17:26:16.618,70.32967032967034,6.0,20.0,11.0,16.0,,26.373626373626376,0.0,,-2.111022505759351,-2.333333333333332,True,8.0,"[62.5, 66.66666666666666, 90.9090909090909, 83.33333333333334, 52.63157894736842, 77.77777777777779]"
v8nNKiWvPdcjiHXZci39OuFTY6M2,prp,376.0,120.0,98.33333333333331,949.0,1232.0,1667.0,1511.0,95.83333333333331,1316.0,1338.0,,,,,,,,,,,,,,,,,,,,,,1347.0,,,,,
v8nNKiWvPdcjiHXZci39OuFTY6M2,stroop,196.0,,,,,,,,,,218.0,100.0,1316.0,1175.0,1098.0,108.0,,,,,,,,,,,,,,,,,,,,,
v8nNKiWvPdcjiHXZci39OuFTY6M2,wcst,271.0,,,,,,,,,,,,,,,,60.0,4.0,21.0,5.0,76.0,63.0,2025-11-05T00:35:33.273,78.94736842105263,6.0,13.0,9.0,12.0,,27.631578947368425,0.0,,2.9761904761904816,0.6666666666666661,True,4.0,"[83.33333333333334, 62.5, 90.9090909090909, 90.9090909090909, 83.33333333333334, 71.42857142857143]"
LSLmd8jENtONZFVkIpRDX665Bu73,prp,345.0,120.0,90.0,707.0,950.0,1441.0,1110.0,95.83333333333331,1286.0,1042.0,,,,,,,,,,,,,,,,,,,,,,986.0,,,,,
LSLmd8jENtONZFVkIpRDX665Bu73,stroop,173.0,,,,,,,,,,231.0,100.0,1090.0,970.0,859.0,108.0,,,,,,,,,,,,,,,,,,,,,
LSLmd8jENtONZFVkIpRDX665Bu73,wcst,224.0,,,,,,,,,,,,,,,,63.0,6.0,22.0,4.0,82.0,67.0,2025-11-04T22:02:43.634,76.82926829268293,6.0,15.0,9.0,11.0,,26.82926829268293,0.0,,-5.050505050505038,-2.666666666666666,True,3.0,"[90.9090909090909, 90.9090909090909, 66.66666666666666, 59.09090909090909, 90.9090909090909, 83.33333333333334]"
mUZzgdWKnPb2txOkJg9FHgqX5792,prp,351.0,120.0,96.66666666666669,825.0,915.0,1432.0,1213.0,97.5,1203.0,1128.0,,,,,,,,,,,,,,,,,,,,,,1247.0,,,,,
mUZzgdWKnPb2txOkJg9FHgqX5792,stroop,184.0,,,,,,,,,,136.0,100.0,1199.0,1092.0,1063.0,108.0,,,,,,,,,,,,,,,,,,,,,
mUZzgdWKnPb2txOkJg9FHgqX5792,wcst,315.0,,,,,,,,,,,,,,,,73.0,9.0,33.0,10.0,107.0,82.0,2025-11-04T15:30:36.110,68.22429906542055,6.0,25.0,16.0,26.0,,30.8411214953271,1.0,,28.406023800760657,4.999999999999998,True,9.0,"[53.84615384615385, 52.63157894736842, 62.5, 76.92307692307693, 90.9090909090909, 86.36363636363636]"
WbOfW9KmUkPQK8o5hlHJnJFdpp92,prp,292.0,120.0,97.5,456.0,575.0,798.0,696.0,96.66666666666669,585.0,639.0,,,,,,,,,,,,,,,,,,,,,,672.0,,,,,
WbOfW9KmUkPQK8o5hlHJnJFdpp92,stroop,199.0,,,,,,,,,,-1.0,96.29629629629628,1159.0,1188.0,1159.0,108.0,,,,,,,,,,,,,,,,,,,,,
WbOfW9KmUkPQK8o5hlHJnJFdpp92,wcst,261.0,,,,,,,,,,,,,,,,74.0,11.0,20.0,13.0,98.0,81.0,2025-11-04T15:35:29.482,75.51020408163265,6.0,17.0,6.0,27.0,,20.40816326530612,2.0,,8.12459145792478,1.9999999999999984,True,12.0,"[59.25925925925925, 90.9090909090909, 71.42857142857143, 85.71428571428571, 83.33333333333334, 76.92307692307693]"
1dpmVw8fpcc2IHs0s9WqdU8Yvi53,prp,382.0,120.0,100.0,888.0,1229.0,1627.0,1719.0,100.0,1612.0,1409.0,,,,,,,,,,,,,,,,,,,,,,1580.0,,,,,
1dpmVw8fpcc2IHs0s9WqdU8Yvi53,stroop,170.0,,,,,,,,,,232.0,99.07407407407408,1093.0,943.0,861.0,108.0,,,,,,,,,,,,,,,,,,,,,
1dpmVw8fpcc2IHs0s9WqdU8Yvi53,wcst,216.0,,,,,,,,,,,,,,,,60.0,4.0,26.0,8.0,72.0,62.0,2025-11-04T16:44:24.800,83.33333333333334,6.0,10.0,6.0,15.0,,36.11111111111111,0.0,,3.0303030303030454,0.6666666666666679,True,7.0,"[66.66666666666666, 90.9090909090909, 90.9090909090909, 90.9090909090909, 83.33333333333334, 83.33333333333334]"
4ySuGdFDDmaAr6JUXbD4UIY6BQ13,prp,335.0,120.0,98.33333333333331,584.0,866.0,1217.0,1365.0,94.16666666666669,1097.0,1029.0,,,,,,,,,,,,,,,,,,,,,,1069.0,,,,,
4ySuGdFDDmaAr6JUXbD4UIY6BQ13,stroop,156.0,,,,,,,,,,179.0,100.0,966.0,828.0,788.0,108.0,,,,,,,,,,,,,,,,,,,,,
4ySuGdFDDmaAr6JUXbD4UIY6BQ13,wcst,192.0,,,,,,,,,,,,,,,,69.0,2.0,22.0,4.0,82.0,73.0,2025-11-04T20:59:57.327,84.14634146341463,6.0,9.0,7.0,11.0,,26.82926829268293,0.0,,1.2014555492816186,-3.333333333333334,True,3.0,"[90.9090909090909, 90.9090909090909, 71.42857142857143, 83.33333333333334, 90.9090909090909, 82.6086956521739]"
fEq0OghbLpfD1jigl1Mbz96aMbg2,prp,318.0,120.0,92.5,474.0,771.0,1219.0,1146.0,98.33333333333331,948.0,914.0,,,,,,,,,,,,,,,,,,,,,,975.0,,,,,
fEq0OghbLpfD1jigl1Mbz96aMbg2,stroop,137.0,,,,,,,,,,141.0,95.37037037037037,718.0,662.0,576.0,108.0,,,,,,,,,,,,,,,,,,,,,
fEq0OghbLpfD1jigl1Mbz96aMbg2,wcst,213.0,,,,,,,,,,,,,,,,60.0,2.0,37.0,3.0,88.0,67.0,2025-11-05T18:50:55.606,68.18181818181817,6.0,21.0,19.0,10.0,,42.04545454545455,0.0,,17.221475842165503,6.000000000000002,True,2.0,"[100, 71.42857142857143, 34.48275862068966, 83.33333333333334, 90.9090909090909, 83.33333333333334]"
QG6VXg7od2fHJ1SF9ZzYBqUa1FY2,prp,320.0,120.0,96.66666666666669,481.0,707.0,1207.0,1140.0,99.16666666666669,856.0,920.0,,,,,,,,,,,,,,,,,,,,,,1074.0,,,,,
QG6VXg7od2fHJ1SF9ZzYBqUa1FY2,stroop,145.0,,,,,,,,,,165.0,99.07407407407408,804.0,730.0,639.0,108.0,,,,,,,,,,,,,,,,,,,,,
QG6VXg7od2fHJ1SF9ZzYBqUa1FY2,wcst,173.0,,,,,,,,,,,,,,,,60.0,4.0,15.0,4.0,74.0,64.0,2025-11-05T19:25:26.985,81.08108108108108,6.0,10.0,6.0,11.0,,20.27027027027027,0.0,,-0.3885003885003897,0.0,True,3.0,"[90.9090909090909, 76.92307692307693, 76.92307692307693, 83.33333333333334, 76.92307692307693, 83.33333333333334]"
cEIs6U87xfbSL5eFTXDK77MmvNf1,prp,339.0,120.0,100.0,665.0,836.0,1262.0,1357.0,94.16666666666669,1196.0,1029.0,,,,,,,,,,,,,,,,,,,,,,1036.0,,,,,
cEIs6U87xfbSL5eFTXDK77MmvNf1,stroop,162.0,,,,,,,,,,45.0,100.0,924.0,882.0,879.0,108.0,,,,,,,,,,,,,,,,,,,,,
cEIs6U87xfbSL5eFTXDK77MmvNf1,wcst,265.0,,,,,,,,,,,,,,,,85.0,5.0,30.0,4.0,103.0,87.0,2025-11-05T20:54:06.050,82.52427184466019,6.0,16.0,11.0,11.0,,29.126213592233007,0.0,,1.6583416583416692,11.000000000000002,True,3.0,"[90.9090909090909, 86.66666666666667, 76.19047619047619, 90.9090909090909, 76.92307692307693, 90.9090909090909]"
AsXBOflrszVNKoFqbN61bMJqS0k2,prp,349.0,120.0,99.16666666666669,772.0,886.0,1467.0,1334.0,100.0,1277.0,1144.0,,,,,,,,,,,,,,,,,,,,,,1261.0,,,,,
AsXBOflrszVNKoFqbN61bMJqS0k2,stroop,150.0,,,,,,,,,,89.0,96.29629629629628,815.0,763.0,726.0,108.0,,,,,,,,,,,,,,,,,,,,,
AsXBOflrszVNKoFqbN61bMJqS0k2,wcst,244.0,,,,,,,,,,,,,,,,81.0,1.0,46.0,3.0,105.0,85.0,2025-11-06T10:55:40.944,77.14285714285715,6.0,20.0,19.0,10.0,,43.80952380952381,1.0,,-5.622895622895626,5.666666666666666,True,2.0,"[100, 76.47058823529412, 73.52941176470588, 86.66666666666667, 90.9090909090909, 55.55555555555556]"
Fz7EUjZCLuUBxLDUVtN6djaBTy42,prp,320.0,120.0,98.33333333333331,619.0,708.0,1191.0,1088.0,100.0,1137.0,889.0,,,,,,,,,,,,,,,,,,,,,,841.0,,,,,
Fz7EUjZCLuUBxLDUVtN6djaBTy42,stroop,174.0,,,,,,,,,,89.0,100.0,1032.0,984.0,943.0,108.0,,,,,,,,,,,,,,,,,,,,,
Fz7EUjZCLuUBxLDUVtN6djaBTy42,wcst,255.0,,,,,,,,,,,,,,,,66.0,4.0,25.0,10.0,84.0,70.0,2025-11-06T12:35:37.442,78.57142857142857,6.0,14.0,10.0,17.0,,29.761904761904763,0.0,,12.158538629126852,0.0,True,9.0,"[58.82352941176471, 83.33333333333334, 76.92307692307693, 83.33333333333334, 88.88888888888889, 83.33333333333334]"
DzB19GqCB7fyrlEPexogWkjFzEx2,prp,369.0,120.0,96.66666666666669,706.0,1029.0,1591.0,1401.0,95.0,1192.0,1252.0,,,,,,,,,,,,,,,,,,,,,,1515.0,,,,,
DzB19GqCB7fyrlEPexogWkjFzEx2,stroop,207.0,,,,,,,,,,181.0,98.14814814814817,1332.0,1243.0,1151.0,108.0,,,,,,,,,,,,,,,,,,,,,
DzB19GqCB7fyrlEPexogWkjFzEx2,wcst,222.0,,,,,,,,,,,,,,,,63.0,5.0,26.0,8.0,79.0,66.0,2025-11-10T18:49:44.868,79.74683544303798,6.0,13.0,8.0,15.0,,32.91139240506329,0.0,,9.523115773115762,0.3333333333333339,True,7.0,"[66.66666666666666, 76.92307692307693, 83.33333333333334, 81.25, 90.9090909090909, 83.33333333333334]"
WKzqsLX1lNVSdbGgYTTVGtFwsrF3,prp,367.0,120.0,97.5,903.0,1112.0,1549.0,1514.0,100.0,1117.0,1318.0,,,,,,,,,,,,,,,,,,,,,,1513.0,,,,,
WKzqsLX1lNVSdbGgYTTVGtFwsrF3,stroop,174.0,,,,,,,,,,91.0,100.0,1052.0,1006.0,961.0,108.0,,,,,,,,,,,,,,,,,,,,,
WKzqsLX1lNVSdbGgYTTVGtFwsrF3,wcst,259.0,,,,,,,,,,,,,,,,80.0,1.0,20.0,3.0,88.0,81.0,2025-11-06T15:18:59.850,90.9090909090909,6.0,7.0,6.0,10.0,,22.727272727272727,0.0,,-6.460423634336678,0.0,True,2.0,"[100, 90.9090909090909, 91.30434782608695, 76.92307692307693, 90.9090909090909, 95]"
xBGZhFOeypWnqzSQClkrwV9z2vF3,prp,345.0,120.0,97.5,699.0,1080.0,1556.0,1268.0,97.5,1067.0,1119.0,,,,,,,,,,,,,,,,,,,,,,1033.0,,,,,
xBGZhFOeypWnqzSQClkrwV9z2vF3,stroop,178.0,,,,,,,,,,208.0,100.0,1144.0,1035.0,936.0,108.0,,,,,,,,,,,,,,,,,,,,,
xBGZhFOeypWnqzSQClkrwV9z2vF3,wcst,180.0,,,,,,,,,,,,,,,,60.0,6.0,19.0,5.0,78.0,64.0,2025-11-06T15:32:56.331,76.92307692307693,6.0,14.0,8.0,12.0,,24.35897435897436,0.0,,-3.0303030303030454,-0.6666666666666679,True,4.0,"[83.33333333333334, 71.42857142857143, 83.33333333333334, 66.66666666666666, 71.42857142857143, 90.9090909090909]"
tPxs1KmmX0ZKjHS9Nr63xoOPCRr2,prp,356.0,120.0,100.0,782.0,956.0,1572.0,1323.0,100.0,1244.0,1196.0,,,,,,,,,,,,,,,,,,,,,,1347.0,,,,,
tPxs1KmmX0ZKjHS9Nr63xoOPCRr2,stroop,162.0,,,,,,,,,,91.0,100.0,932.0,886.0,841.0,108.0,,,,,,,,,,,,,,,,,,,,,
tPxs1KmmX0ZKjHS9Nr63xoOPCRr2,wcst,203.0,,,,,,,,,,,,,,,,60.0,1.0,21.0,3.0,69.0,63.0,2025-11-07T00:18:10.781,86.95652173913044,6.0,6.0,5.0,10.0,,30.434782608695656,0.0,,-3.030303030303017,-0.3333333333333321,True,2.0,"[100, 90.9090909090909, 76.92307692307693, 76.92307692307693, 90.9090909090909, 90.9090909090909]"
y1EHXv8tUTa4BRS4fRio7bULYfA2,prp,365.0,120.0,95.83333333333331,853.0,1050.0,1748.0,1224.0,95.83333333333331,1080.0,1215.0,,,,,,,,,,,,,,,,,,,,,,1195.0,,,,,
y1EHXv8tUTa4BRS4fRio7bULYfA2,stroop,160.0,,,,,,,,,,176.0,100.0,943.0,859.0,767.0,108.0,,,,,,,,,,,,,,,,,,,,,
y1EHXv8tUTa4BRS4fRio7bULYfA2,wcst,297.0,,,,,,,,,,,,,,,,70.0,8.0,31.0,4.0,101.0,77.0,2025-11-07T13:55:07.509,69.3069306930693,6.0,24.0,16.0,18.0,,30.69306930693069,1.0,,0.1424501424501301,-1.0,True,3.0,"[77.77777777777779, 90.9090909090909, 50, 61.53846153846154, 90.9090909090909, 66.66666666666666]"
HyQM2xKwwuVfqidmRYF6TiRk90C2,prp,305.0,120.0,99.16666666666669,606.0,657.0,997.0,860.0,100.0,1086.0,786.0,,,,,,,,,,,,,,,,,,,,,,812.0,,,,,
HyQM2xKwwuVfqidmRYF6TiRk90C2,stroop,137.0,,,,,,,,,,43.0,100.0,679.0,651.0,636.0,108.0,,,,,,,,,,,,,,,,,,,,,
HyQM2xKwwuVfqidmRYF6TiRk90C2,wcst,183.0,,,,,,,,,,,,,,,,68.0,3.0,27.0,5.0,83.0,73.0,2025-11-08T14:28:56.313,81.92771084337349,6.0,10.0,7.0,12.0,,32.53012048192771,1.0,,0.0999000999001111,-3.0,True,4.0,"[83.33333333333334, 71.42857142857143, 90.9090909090909, 76.92307692307693, 83.33333333333334, 85.71428571428571]"
roaf78tUWxWSEjAUcUu8O7mrQbl1,prp,376.0,120.0,95.83333333333331,1005.0,1197.0,1348.0,1601.0,96.66666666666669,1276.0,1297.0,,,,,,,,,,,,,,,,,,,,,,1344.0,,,,,
roaf78tUWxWSEjAUcUu8O7mrQbl1,stroop,154.0,,,,,,,,,,101.0,100.0,870.0,800.0,769.0,108.0,,,,,,,,,,,,,,,,,,,,,
roaf78tUWxWSEjAUcUu8O7mrQbl1,wcst,233.0,,,,,,,,,,,,,,,,63.0,3.0,22.0,5.0,78.0,66.0,2025-11-08T14:36:53.047,80.76923076923077,6.0,12.0,9.0,12.0,,28.205128205128204,0.0,,-4.81283422459893,-2.0,True,4.0,"[83.33333333333334, 76.92307692307693, 90.9090909090909, 76.92307692307693, 76.47058823529412, 83.33333333333334]"
Rc706mP0TSeIoIpMYH1SpRXjOxA2,prp,350.0,120.0,96.66666666666669,665.0,1011.0,1301.0,1471.0,99.16666666666669,1015.0,1119.0,,,,,,,,,,,,,,,,,,,,,,1153.0,,,,,
Rc706mP0TSeIoIpMYH1SpRXjOxA2,stroop,172.0,,,,,,,,,,67.0,98.14814814814817,1040.0,978.0,972.0,108.0,,,,,,,,,,,,,,,,,,,,,
Rc706mP0TSeIoIpMYH1SpRXjOxA2,wcst,181.0,,,,,,,,,,,,,,,,60.0,0.0,13.0,3.0,61.0,60.0,2025-11-08T16:10:27.876,98.36065573770492,6.0,1.0,1.0,10.0,,21.311475409836063,0.0,,3.0303030303030454,0.3333333333333339,True,2.0,"[100, 90.9090909090909, 100, 100, 100, 100]"
i1tBstVkNiVP0qro7TgGD08IGGa2,prp,375.0,120.0,97.5,720.0,1186.0,1644.0,1395.0,98.33333333333331,1242.0,1266.0,,,,,,,,,,,,,,,,,,,,,,1395.0,,,,,
i1tBstVkNiVP0qro7TgGD08IGGa2,stroop,197.0,,,,,,,,,,140.0,98.14814814814817,1254.0,1187.0,1113.0,108.0,,,,,,,,,,,,,,,,,,,,,
i1tBstVkNiVP0qro7TgGD08IGGa2,wcst,244.0,,,,,,,,,,,,,,,,64.0,3.0,23.0,3.0,80.0,69.0,2025-11-08T18:42:26.288,80.0,6.0,11.0,8.0,15.0,,28.75,0.0,,-11.720779220779235,-0.6666666666666661,True,2.0,"[93.33333333333333, 83.33333333333334, 83.33333333333334, 90.9090909090909, 62.5, 71.42857142857143]"
h12a1QYNpYbl3T0Gj1PxUz3EnEx2,prp,341.0,120.0,95.0,687.0,1145.0,1335.0,1178.0,98.33333333333331,1310.0,1080.0,,,,,,,,,,,,,,,,,,,,,,1057.0,,,,,
h12a1QYNpYbl3T0Gj1PxUz3EnEx2,stroop,163.0,,,,,,,,,,320.0,96.29629629629628,1064.0,890.0,744.0,108.0,,,,,,,,,,,,,,,,,,,,,
h12a1QYNpYbl3T0Gj1PxUz3EnEx2,wcst,218.0,,,,,,,,,,,,,,,,60.0,4.0,19.0,7.0,72.0,64.0,2025-11-08T23:41:39.423,83.33333333333334,6.0,8.0,4.0,14.0,,26.38888888888889,0.0,,14.18581418581418,2.0,True,6.0,"[71.42857142857143, 83.33333333333334, 76.92307692307693, 100, 90.9090909090909, 83.33333333333334]"
2zDXvJKvjeejeOSNbtDbtSI5cdz1,prp,342.0,120.0,100.0,690.0,865.0,1440.0,1357.0,99.16666666666669,1217.0,1111.0,,,,,,,,,,,,,,,,,,,,,,1184.0,,,,,
2zDXvJKvjeejeOSNbtDbtSI5cdz1,stroop,148.0,,,,,,,,,,145.0,100.0,859.0,760.0,714.0,108.0,,,,,,,,,,,,,,,,,,,,,
2zDXvJKvjeejeOSNbtDbtSI5cdz1,wcst,191.0,,,,,,,,,,,,,,,,60.0,4.0,19.0,5.0,71.0,62.0,2025-11-16T21:58:41.624,84.50704225352112,6.0,9.0,5.0,12.0,,26.76056338028169,0.0,,-2.1367521367521363,-0.3333333333333339,True,4.0,"[83.33333333333334, 83.33333333333334, 90.9090909090909, 90.9090909090909, 83.33333333333334, 76.92307692307693]"
iWsc4pghIEWOQUZKuQJMfe516UI3,prp,304.0,120.0,100.0,495.0,540.0,1025.0,1009.0,100.0,776.0,781.0,,,,,,,,,,,,,,,,,,,,,,840.0,,,,,
iWsc4pghIEWOQUZKuQJMfe516UI3,stroop,136.0,,,,,,,,,,133.0,98.14814814814817,712.0,643.0,579.0,108.0,,,,,,,,,,,,,,,,,,,,,
iWsc4pghIEWOQUZKuQJMfe516UI3,wcst,188.0,,,,,,,,,,,,,,,,67.0,5.0,22.0,8.0,80.0,69.0,2025-11-10T18:12:48.285,83.75,6.0,11.0,6.0,20.0,,27.500000000000004,0.0,,8.080808080808083,2.0,True,7.0,"[70, 90.9090909090909, 83.33333333333334, 90.9090909090909, 86.66666666666667, 90.9090909090909]"
lHDkoPQu5reNCO45npeYSS9eLQl1,prp,365.0,120.0,95.0,718.0,1152.0,1631.0,1476.0,98.33333333333331,1138.0,1261.0,,,,,,,,,,,,,,,,,,,,,,1321.0,,,,,
lHDkoPQu5reNCO45npeYSS9eLQl1,stroop,151.0,,,,,,,,,,108.0,98.14814814814817,851.0,776.0,743.0,108.0,,,,,,,,,,,,,,,,,,,,,
lHDkoPQu5reNCO45npeYSS9eLQl1,wcst,296.0,,,,,,,,,,,,,,,,60.0,19.0,34.0,23.0,109.0,74.0,2025-11-11T00:29:27.539,55.04587155963303,6.0,35.0,16.0,30.0,,31.19266055045872,0.0,,15.13116513116514,5.000000000000002,True,22.0,"[33.33333333333333, 55.55555555555556, 71.42857142857143, 83.33333333333334, 76.92307692307693, 45.45454545454545]"
WcTsIpSoEhYeIBSNjAbbdaNSBya2,prp,337.0,120.0,95.83333333333331,594.0,911.0,1263.0,1240.0,96.66666666666669,934.0,1032.0,,,,,,,,,,,,,,,,,,,,,,1147.0,,,,,
WcTsIpSoEhYeIBSNjAbbdaNSBya2,stroop,181.0,,,,,,,,,,6.0,100.0,1047.0,1054.0,1041.0,108.0,,,,,,,,,,,,,,,,,,,,,
WcTsIpSoEhYeIBSNjAbbdaNSBya2,wcst,264.0,,,,,,,,,,,,,,,,67.0,7.0,34.0,7.0,94.0,74.0,2025-11-11T11:33:39.435,71.27659574468085,6.0,20.0,13.0,14.0,,36.17021276595745,1.0,,16.75925925925926,0.6666666666666661,True,6.0,"[71.42857142857143, 55.55555555555556, 62.5, 71.42857142857143, 85, 83.33333333333334]"
AUKCfn4HzgVB7m6LNnh2gQb7G5s2,prp,340.0,120.0,99.16666666666669,654.0,950.0,1304.0,1347.0,98.33333333333331,1028.0,1067.0,,,,,,,,,,,,,,,,,,,,,,1062.0,,,,,
AUKCfn4HzgVB7m6LNnh2gQb7G5s2,stroop,170.0,,,,,,,,,,89.0,99.07407407407408,1022.0,954.0,933.0,108.0,,,,,,,,,,,,,,,,,,,,,
AUKCfn4HzgVB7m6LNnh2gQb7G5s2,wcst,272.0,,,,,,,,,,,,,,,,66.0,10.0,25.0,13.0,94.0,74.0,2025-11-11T20:30:08.051,70.2127659574468,6.0,20.0,10.0,20.0,,26.595744680851062,1.0,,23.90350877192983,2.666666666666666,True,12.0,"[50, 62.5, 66.66666666666666, 83.33333333333334, 84.21052631578947, 83.33333333333334]"
CtJe4bZZnYUBNrcPk00d3YQFSGp2,prp,363.0,120.0,100.0,773.0,1113.0,1621.0,1426.0,96.66666666666669,1058.0,1254.0,,,,,,,,,,,,,,,,,,,,,,1315.0,,,,,
CtJe4bZZnYUBNrcPk00d3YQFSGp2,stroop,153.0,,,,,,,,,,108.0,100.0,850.0,793.0,742.0,108.0,,,,,,,,,,,,,,,,,,,,,
CtJe4bZZnYUBNrcPk00d3YQFSGp2,wcst,204.0,,,,,,,,,,,,,,,,60.0,5.0,23.0,6.0,80.0,64.0,2025-11-11T21:59:29.008,75.0,6.0,16.0,11.0,13.0,,28.75,0.0,,1.2973137973138051,0.0,True,5.0,"[76.92307692307693, 71.42857142857143, 76.92307692307693, 62.5, 83.33333333333334, 83.33333333333334]"
CDEoAyvS8feXLKMKsaZah9agEhF3,prp,337.0,120.0,99.16666666666669,623.0,855.0,1361.0,1273.0,100.0,997.0,1051.0,,,,,,,,,,,,,,,,,,,,,,1145.0,,,,,
CDEoAyvS8feXLKMKsaZah9agEhF3,stroop,157.0,,,,,,,,,,194.0,100.0,940.0,838.0,746.0,108.0,,,,,,,,,,,,,,,,,,,,,
CDEoAyvS8feXLKMKsaZah9agEhF3,wcst,217.0,,,,,,,,,,,,,,,,60.0,0.0,20.0,3.0,68.0,62.0,2025-11-12T10:09:50.455,88.23529411764706,6.0,6.0,6.0,10.0,,29.411764705882355,0.0,,-10.217560217560203,-1.333333333333334,True,2.0,"[100, 90.9090909090909, 90.9090909090909, 90.9090909090909, 83.33333333333334, 76.92307692307693]"
GDZGRW51kbWtAdUIHCtEd8sAtqY2,prp,320.0,120.0,94.16666666666669,451.0,715.0,1248.0,1053.0,98.33333333333331,874.0,884.0,,,,,,,,,,,,,,,,,,,,,,974.0,,,,,
GDZGRW51kbWtAdUIHCtEd8sAtqY2,stroop,170.0,,,,,,,,,,-10.0,100.0,941.0,958.0,951.0,108.0,,,,,,,,,,,,,,,,,,,,,
GDZGRW51kbWtAdUIHCtEd8sAtqY2,wcst,256.0,,,,,,,,,,,,,,,,63.0,8.0,22.0,7.0,83.0,65.0,2025-11-12T13:00:11.853,75.90361445783132,6.0,18.0,10.0,20.0,,26.506024096385545,0.0,,-4.106449106449105,1.0,True,6.0,"[65, 83.33333333333334, 90.9090909090909, 83.33333333333334, 66.66666666666666, 76.92307692307693]"
QreA2rLiUhV3YHeMfuHMPdGbpJ53,prp,338.0,120.0,94.16666666666669,700.0,835.0,1321.0,1203.0,94.16666666666669,846.0,1056.0,,,,,,,,,,,,,,,,,,,,,,1210.0,,,,,
QreA2rLiUhV3YHeMfuHMPdGbpJ53,stroop,184.0,,,,,,,,,,334.0,97.2222222222222,1227.0,1087.0,893.0,108.0,,,,,,,,,,,,,,,,,,,,,
QreA2rLiUhV3YHeMfuHMPdGbpJ53,wcst,235.0,,,,,,,,,,,,,,,,69.0,10.0,29.0,14.0,95.0,74.0,2025-11-12T15:53:35.904,72.63157894736842,6.0,21.0,11.0,21.0,,30.526315789473685,1.0,,11.291819291819294,-0.9999999999999982,True,13.0,"[47.61904761904761, 71.42857142857143, 90.9090909090909, 76.92307692307693, 76, 90.9090909090909]"
azdL1gX79EVd9iepyCAVQrqIaQF3,prp,320.0,120.0,99.16666666666669,549.0,750.0,1192.0,1177.0,98.33333333333331,892.0,926.0,,,,,,,,,,,,,,,,,,,,,,967.0,,,,,
azdL1gX79EVd9iepyCAVQrqIaQF3,stroop,146.0,,,,,,,,,,67.0,98.14814814814817,796.0,743.0,729.0,108.0,,,,,,,,,,,,,,,,,,,,,
azdL1gX79EVd9iepyCAVQrqIaQF3,wcst,199.0,,,,,,,,,,,,,,,,67.0,4.0,22.0,4.0,81.0,69.0,2025-11-13T00:58:12.711,82.71604938271605,6.0,12.0,8.0,11.0,,27.160493827160494,1.0,,-14.041733120680476,0.3333333333333321,True,3.0,"[90.9090909090909, 89.47368421052632, 90.9090909090909, 62.5, 83.33333333333334, 83.33333333333334]"
jzdk8E3tVXTXIozlfK5oeEb7wWp2,prp,318.0,120.0,100.0,529.0,745.0,1184.0,976.0,95.83333333333331,708.0,890.0,,,,,,,,,,,,,,,,,,,,,,977.0,,,,,
jzdk8E3tVXTXIozlfK5oeEb7wWp2,stroop,163.0,,,,,,,,,,37.0,100.0,884.0,892.0,847.0,108.0,,,,,,,,,,,,,,,,,,,,,
jzdk8E3tVXTXIozlfK5oeEb7wWp2,wcst,182.0,,,,,,,,,,,,,,,,69.0,0.0,27.0,3.0,78.0,70.0,2025-11-13T16:49:44.370,88.46153846153845,6.0,8.0,8.0,10.0,,34.61538461538461,0.0,,-6.177156177156164,2.666666666666668,True,2.0,"[100, 86.36363636363636, 90.9090909090909, 90.9090909090909, 76.92307692307693, 90.9090909090909]"
pRQimOpZtsekBI2I1kbnD3pycmo1,prp,281.0,120.0,99.16666666666669,413.0,489.0,848.0,679.0,95.83333333333331,760.0,593.0,,,,,,,,,,,,,,,,,,,,,,516.0,,,,,
pRQimOpZtsekBI2I1kbnD3pycmo1,stroop,153.0,,,,,,,,,,124.0,100.0,859.0,800.0,735.0,108.0,,,,,,,,,,,,,,,,,,,,,
pRQimOpZtsekBI2I1kbnD3pycmo1,wcst,276.0,,,,,,,,,,,,,,,,63.0,5.0,22.0,7.0,77.0,64.0,2025-11-14T14:29:46.991,81.81818181818183,6.0,13.0,8.0,14.0,,28.57142857142857,0.0,,0.4173604173604133,-1.0,True,6.0,"[71.42857142857143, 83.33333333333334, 90.9090909090909, 76.92307692307693, 86.66666666666667, 83.33333333333334]"
yfjd8LbAMrYeG54927d3GiKAyXI2,prp,337.0,120.0,98.33333333333331,541.0,772.0,1450.0,1306.0,93.33333333333331,1001.0,1026.0,,,,,,,,,,,,,,,,,,,,,,1053.0,,,,,
yfjd8LbAMrYeG54927d3GiKAyXI2,stroop,161.0,,,,,,,,,,103.0,99.07407407407408,943.0,872.0,840.0,108.0,,,,,,,,,,,,,,,,,,,,,
yfjd8LbAMrYeG54927d3GiKAyXI2,wcst,196.0,,,,,,,,,,,,,,,,60.0,7.0,22.0,10.0,78.0,64.0,2025-11-25T18:39:58.724,76.92307692307693,6.0,14.0,7.0,17.0,,28.205128205128204,0.0,,14.113990584578843,2.666666666666668,True,9.0,"[58.82352941176471, 66.66666666666666, 90.9090909090909, 76.92307692307693, 90.9090909090909, 90.9090909090909]"
HSggdq91WiQp16bOj7V3dABkcgk2,prp,326.0,120.0,100.0,565.0,703.0,1318.0,1032.0,100.0,871.0,956.0,,,,,,,,,,,,,,,,,,,,,,1163.0,,,,,
HSggdq91WiQp16bOj7V3dABkcgk2,stroop,144.0,,,,,,,,,,80.0,100.0,760.0,720.0,680.0,108.0,,,,,,,,,,,,,,,,,,,,,
HSggdq91WiQp16bOj7V3dABkcgk2,wcst,212.0,,,,,,,,,,,,,,,,71.0,6.0,24.0,10.0,89.0,76.0,2025-11-14T21:56:44.708,79.7752808988764,6.0,13.0,7.0,17.0,,26.96629213483146,1.0,,2.7346292052174306,-3.666666666666668,True,9.0,"[58.82352941176471, 90.9090909090909, 90.9090909090909, 85.71428571428571, 72.22222222222221, 90.9090909090909]"
PLreonkqaMeFc0UqxKUelH44UQu1,prp,312.0,120.0,95.83333333333331,505.0,735.0,1122.0,1018.0,97.5,810.0,854.0,,,,,,,,,,,,,,,,,,,,,,880.0,,,,,
PLreonkqaMeFc0UqxKUelH44UQu1,stroop,135.0,,,,,,,,,,-17.0,97.2222222222222,666.0,649.0,683.0,108.0,,,,,,,,,,,,,,,,,,,,,
PLreonkqaMeFc0UqxKUelH44UQu1,wcst,278.0,,,,,,,,,,,,,,,,64.0,7.0,35.0,5.0,96.0,74.0,2025-11-15T17:47:55.101,66.66666666666666,6.0,22.0,15.0,12.0,,36.45833333333333,0.0,,1.1453823953823985,4.666666666666666,True,4.0,"[83.33333333333334, 43.75, 90.9090909090909, 66.66666666666666, 83.33333333333334, 71.42857142857143]"
ToTCRJ4EX9OL6UlJqmDkaEbggWF2,prp,357.0,120.0,96.66666666666669,851.0,1019.0,1534.0,1280.0,98.33333333333331,1076.0,1202.0,,,,,,,,,,,,,,,,,,,,,,1323.0,,,,,
ToTCRJ4EX9OL6UlJqmDkaEbggWF2,stroop,164.0,,,,,,,,,,15.0,100.0,893.0,903.0,878.0,108.0,,,,,,,,,,,,,,,,,,,,,
ToTCRJ4EX9OL6UlJqmDkaEbggWF2,wcst,220.0,,,,,,,,,,,,,,,,60.0,3.0,24.0,7.0,78.0,67.0,2025-11-15T18:38:23.426,76.92307692307693,6.0,11.0,8.0,14.0,,30.76923076923077,0.0,,3.663003663003664,0.6666666666666679,True,6.0,"[71.42857142857143, 71.42857142857143, 83.33333333333334, 76.92307692307693, 76.92307692307693, 83.33333333333334]"
foaW7wtvY3XLNdguFUK7OvOefP93,prp,331.0,120.0,100.0,666.0,819.0,1222.0,1030.0,98.33333333333331,933.0,962.0,,,,,,,,,,,,,,,,,,,,,,1066.0,,,,,
foaW7wtvY3XLNdguFUK7OvOefP93,stroop,160.0,,,,,,,,,,153.0,100.0,947.0,847.0,795.0,108.0,,,,,,,,,,,,,,,,,,,,,
foaW7wtvY3XLNdguFUK7OvOefP93,wcst,185.0,,,,,,,,,,,,,,,,63.0,1.0,25.0,6.0,77.0,68.0,2025-11-15T21:41:08.832,81.81818181818183,6.0,9.0,8.0,13.0,,32.467532467532465,0.0,,12.71756021756022,1.0,True,5.0,"[76.92307692307693, 62.5, 90.9090909090909, 86.66666666666667, 90.9090909090909, 90.9090909090909]"
EmfmKFDgWJdW47a6CNTNjnbYaPh2,prp,374.0,120.0,96.66666666666669,774.0,1161.0,1673.0,1569.0,97.5,1077.0,1314.0,,,,,,,,,,,,,,,,,,,,,,1413.0,,,,,
EmfmKFDgWJdW47a6CNTNjnbYaPh2,stroop,164.0,,,,,,,,,,199.0,100.0,1013.0,903.0,814.0,108.0,,,,,,,,,,,,,,,,,,,,,
EmfmKFDgWJdW47a6CNTNjnbYaPh2,wcst,230.0,,,,,,,,,,,,,,,,70.0,2.0,23.0,3.0,83.0,72.0,2025-11-16T18:08:05.039,84.33734939759037,6.0,11.0,9.0,10.0,,27.710843373493976,0.0,,-17.216117216117198,-6.999999999999998,True,2.0,"[100, 90.9090909090909, 100, 71.42857142857143, 90.9090909090909, 76.92307692307693]"
6ABZuv4jbjgE0B8TeyUk6nwVb122,prp,351.0,120.0,98.33333333333331,707.0,918.0,1461.0,1428.0,100.0,1002.0,1165.0,,,,,,,,,,,,,,,,,,,,,,1310.0,,,,,
6ABZuv4jbjgE0B8TeyUk6nwVb122,stroop,181.0,,,,,,,,,,114.0,100.0,1123.0,1053.0,1009.0,108.0,,,,,,,,,,,,,,,,,,,,,
6ABZuv4jbjgE0B8TeyUk6nwVb122,wcst,265.0,,,,,,,,,,,,,,,,76.0,3.0,22.0,3.0,88.0,78.0,2025-11-16T20:14:05.964,86.36363636363636,6.0,10.0,7.0,10.0,,25.0,1.0,,1.452490162167578,6.666666666666666,True,2.0,"[100, 83.87096774193549, 76.92307692307693, 90.9090909090909, 83.33333333333334, 90.9090909090909]"
WeHQDy9BWldTlaQDVVlsJNCqwxA2,prp,333.0,120.0,97.5,566.0,808.0,1360.0,1287.0,96.66666666666669,898.0,1036.0,,,,,,,,,,,,,,,,,,,,,,1167.0,,,,,
WeHQDy9BWldTlaQDVVlsJNCqwxA2,stroop,164.0,,,,,,,,,,163.0,100.0,996.0,906.0,834.0,108.0,,,,,,,,,,,,,,,,,,,,,
WeHQDy9BWldTlaQDVVlsJNCqwxA2,wcst,253.0,,,,,,,,,,,,,,,,66.0,13.0,38.0,7.0,107.0,81.0,2025-11-16T21:38:54.437,61.6822429906542,6.0,26.0,13.0,25.0,,35.51401869158878,1.0,,27.081215081215085,10.333333333333334,True,6.0,"[64, 38.46153846153847, 55.55555555555556, 71.42857142857143, 90.9090909090909, 76.92307692307693]"
0d841i8KPjdjwCYfDuUUXj0SEjH2,prp,324.0,120.0,97.5,529.0,830.0,1252.0,938.0,95.83333333333331,861.0,933.0,,,,,,,,,,,,,,,,,,,,,,1103.0,,,,,
0d841i8KPjdjwCYfDuUUXj0SEjH2,stroop,166.0,,,,,,,,,,278.0,97.2222222222222,1030.0,919.0,752.0,108.0,,,,,,,,,,,,,,,,,,,,,
0d841i8KPjdjwCYfDuUUXj0SEjH2,wcst,187.0,,,,,,,,,,,,,,,,60.0,5.0,19.0,6.0,68.0,60.0,2025-11-16T21:55:39.080,88.23529411764706,6.0,8.0,3.0,13.0,,27.94117647058824,0.0,,10.217560217560203,1.333333333333334,True,5.0,"[76.92307692307693, 83.33333333333334, 90.9090909090909, 100, 90.9090909090909, 90.9090909090909]"
0oa5NYVnIBS9NmrmRAZrahXDctP2,prp,292.0,120.0,99.16666666666669,510.0,509.0,919.0,778.0,94.16666666666669,776.0,678.0,,,,,,,,,,,,,,,,,,,,,,700.0,,,,,
0oa5NYVnIBS9NmrmRAZrahXDctP2,stroop,126.0,,,,,,,,,,0.0,96.29629629629628,558.0,550.0,557.0,108.0,,,,,,,,,,,,,,,,,,,,,
0oa5NYVnIBS9NmrmRAZrahXDctP2,wcst,152.0,,,,,,,,,,,,,,,,60.0,4.0,18.0,6.0,73.0,63.0,2025-11-16T22:51:49.670,82.1917808219178,6.0,10.0,6.0,13.0,,24.65753424657534,0.0,,2.525252525252526,0.3333333333333339,True,5.0,"[76.92307692307693, 83.33333333333334, 83.33333333333334, 83.33333333333334, 76.92307692307693, 90.9090909090909]"
5OOi73igsahMZ5IVKQwwyhnj4Cn2,prp,313.0,120.0,100.0,603.0,695.0,985.0,889.0,100.0,1013.0,836.0,,,,,,,,,,,,,,,,,,,,,,1008.0,,,,,
5OOi73igsahMZ5IVKQwwyhnj4Cn2,stroop,157.0,,,,,,,,,,149.0,99.07407407407408,934.0,833.0,785.0,108.0,,,,,,,,,,,,,,,,,,,,,
5OOi73igsahMZ5IVKQwwyhnj4Cn2,wcst,200.0,,,,,,,,,,,,,,,,60.0,4.0,20.0,4.0,70.0,63.0,2025-11-16T23:33:02.950,85.71428571428571,6.0,7.0,3.0,11.0,,28.57142857142857,0.0,,-10.695187165775394,-2.0,True,3.0,"[90.9090909090909, 90.9090909090909, 100, 58.82352941176471, 90.9090909090909, 100]"
O61Eik2zvrSQLMNpFbTNEgjWwMr2,prp,361.0,120.0,91.66666666666669,695.0,1020.0,1606.0,1534.0,93.33333333333331,1166.0,1231.0,,,,,,,,,,,,,,,,,,,,,,1347.0,,,,,
O61Eik2zvrSQLMNpFbTNEgjWwMr2,stroop,158.0,,,,,,,,,,-94.0,99.07407407407408,784.0,826.0,878.0,108.0,,,,,,,,,,,,,,,,,,,,,
O61Eik2zvrSQLMNpFbTNEgjWwMr2,wcst,202.0,,,,,,,,,,,,,,,,60.0,4.0,24.0,8.0,78.0,67.0,2025-11-17T20:04:57.580,76.92307692307693,6.0,11.0,7.0,15.0,,30.76923076923077,0.0,,16.405816405816424,2.666666666666668,True,7.0,"[66.66666666666666, 71.42857142857143, 71.42857142857143, 90.9090909090909, 90.9090909090909, 76.92307692307693]"
Ub7nV8F55kPruh35ZpUcKoBUyn63,prp,384.0,120.0,99.16666666666669,964.0,1337.0,1716.0,1677.0,97.5,1195.0,1447.0,,,,,,,,,,,,,,,,,,,,,,1571.0,,,,,
Ub7nV8F55kPruh35ZpUcKoBUyn63,stroop,178.0,,,,,,,,,,138.0,99.07407407407408,1108.0,1034.0,970.0,108.0,,,,,,,,,,,,,,,,,,,,,
Ub7nV8F55kPruh35ZpUcKoBUyn63,wcst,208.0,,,,,,,,,,,,,,,,60.0,5.0,24.0,8.0,81.0,67.0,2025-11-17T09:39:51.148,74.07407407407408,6.0,14.0,9.0,15.0,,29.629629629629623,0.0,,10.606060606060607,1.666666666666668,True,7.0,"[66.66666666666666, 83.33333333333334, 62.5, 62.5, 90.9090909090909, 90.9090909090909]"
Co587hoelyeANqFX7AYvuVQW0lZ2,prp,292.0,120.0,99.16666666666669,430.0,468.0,955.0,847.0,99.16666666666669,711.0,687.0,,,,,,,,,,,,,,,,,,,,,,740.0,,,,,
Co587hoelyeANqFX7AYvuVQW0lZ2,stroop,136.0,,,,,,,,,,27.0,99.07407407407408,669.0,649.0,642.0,108.0,,,,,,,,,,,,,,,,,,,,,
Co587hoelyeANqFX7AYvuVQW0lZ2,wcst,168.0,,,,,,,,,,,,,,,,66.0,6.0,22.0,4.0,82.0,67.0,2025-11-17T12:03:49.515,80.48780487804879,6.0,15.0,9.0,11.0,,26.82926829268293,0.0,,0.8935508935509091,3.333333333333334,True,3.0,"[90.9090909090909, 66.66666666666666, 90.9090909090909, 90.9090909090909, 76.92307692307693, 83.33333333333334]"
cec6NLR2ZLVVw6h0TEKSNIH11v02,prp,315.0,120.0,100.0,481.0,638.0,1095.0,1193.0,100.0,787.0,863.0,,,,,,,,,,,,,,,,,,,,,,906.0,,,,,
cec6NLR2ZLVVw6h0TEKSNIH11v02,stroop,159.0,,,,,,,,,,68.0,100.0,876.0,855.0,808.0,108.0,,,,,,,,,,,,,,,,,,,,,
cec6NLR2ZLVVw6h0TEKSNIH11v02,wcst,329.0,,,,,,,,,,,,,,,,47.0,50.0,5.0,3.0,128.0,77.0,2025-11-17T15:32:16.555,36.71875,1.0,51.0,1.0,112.0,,3.90625,2.0,,0.0,0.0,True,2.0,[31.25]
M4Km1Q2P2oPliChDQkwl6k20FUI3,prp,323.0,120.0,98.33333333333331,632.0,720.0,1203.0,1098.0,98.33333333333331,912.0,903.0,,,,,,,,,,,,,,,,,,,,,,845.0,,,,,
M4Km1Q2P2oPliChDQkwl6k20FUI3,stroop,148.0,,,,,,,,,,160.0,99.07407407407408,837.0,740.0,676.0,108.0,,,,,,,,,,,,,,,,,,,,,
M4Km1Q2P2oPliChDQkwl6k20FUI3,wcst,329.0,,,,,,,,,,,,,,,,80.0,8.0,28.0,4.0,102.0,84.0,2025-11-17T20:16:16.531,78.43137254901961,6.0,18.0,10.0,20.0,,27.450980392156865,3.0,,-2.0903715021362217,5.333333333333334,True,3.0,"[80, 71.42857142857143, 88.88888888888889, 90.9090909090909, 66.66666666666666, 76.47058823529412]"
1Vb7DcXYw9R86bw5qj9eBk9fPqA2,prp,314.0,120.0,99.16666666666669,592.0,685.0,1073.0,930.0,95.83333333333331,1034.0,837.0,,,,,,,,,,,,,,,,,,,,,,920.0,,,,,
1Vb7DcXYw9R86bw5qj9eBk9fPqA2,stroop,195.0,,,,,,,,,,134.0,99.07407407407408,1220.0,1177.0,1086.0,108.0,,,,,,,,,,,,,,,,,,,,,
1Vb7DcXYw9R86bw5qj9eBk9fPqA2,wcst,220.0,,,,,,,,,,,,,,,,60.0,3.0,15.0,4.0,69.0,60.0,2025-11-17T21:19:10.948,86.95652173913044,6.0,9.0,6.0,11.0,,21.73913043478261,0.0,,-7.187257187257188,-1.0,True,3.0,"[90.9090909090909, 90.9090909090909, 90.9090909090909, 76.92307692307693, 83.33333333333334, 90.9090909090909]"
Ru3Qf6pXZua1DfNkQdhbor6iJ403,prp,349.0,120.0,100.0,871.0,886.0,1407.0,1225.0,99.16666666666669,900.0,1136.0,,,,,,,,,,,,,,,,,,,,,,1304.0,,,,,
Ru3Qf6pXZua1DfNkQdhbor6iJ403,stroop,177.0,,,,,,,,,,107.0,95.37037037037037,1040.0,1016.0,933.0,108.0,,,,,,,,,,,,,,,,,,,,,
Ru3Qf6pXZua1DfNkQdhbor6iJ403,wcst,282.0,,,,,,,,,,,,,,,,69.0,5.0,28.0,3.0,86.0,73.0,2025-11-18T12:28:26.384,80.23255813953489,6.0,13.0,8.0,10.0,,32.55813953488372,1.0,,-4.942612942612939,3.333333333333334,True,2.0,"[100, 76, 76.92307692307693, 83.33333333333334, 71.42857142857143, 83.33333333333334]"
6WFCyGwk71XLPBmbe4Vav3eotVm1,prp,292.0,120.0,100.0,475.0,542.0,981.0,706.0,96.66666666666669,752.0,672.0,,,,,,,,,,,,,,,,,,,,,,666.0,,,,,
6WFCyGwk71XLPBmbe4Vav3eotVm1,stroop,140.0,,,,,,,,,,30.0,100.0,716.0,683.0,686.0,108.0,,,,,,,,,,,,,,,,,,,,,
6WFCyGwk71XLPBmbe4Vav3eotVm1,wcst,160.0,,,,,,,,,,,,,,,,60.0,3.0,14.0,3.0,69.0,62.0,2025-11-18T15:47:28.316,86.95652173913044,6.0,7.0,4.0,10.0,,20.28985507246377,0.0,,10.606060606060607,1.666666666666668,True,2.0,"[100, 83.33333333333334, 66.66666666666666, 90.9090909090909, 90.9090909090909, 100]"
ASGvwW80q7VY7xFaLGZhVuErUQu2,prp,381.0,120.0,91.66666666666669,889.0,1213.0,1580.0,1576.0,93.33333333333331,1696.0,1334.0,,,,,,,,,,,,,,,,,,,,,,1423.0,,,,,
ASGvwW80q7VY7xFaLGZhVuErUQu2,stroop,161.0,,,,,,,,,,147.0,97.2222222222222,925.0,868.0,778.0,108.0,,,,,,,,,,,,,,,,,,,,,
ASGvwW80q7VY7xFaLGZhVuErUQu2,wcst,201.0,,,,,,,,,,,,,,,,67.0,2.0,26.0,3.0,80.0,71.0,2025-11-18T22:45:21.664,83.75,6.0,9.0,7.0,10.0,,32.5,1.0,,-6.51015651015652,2.0,True,2.0,"[100, 80.95238095238095, 83.33333333333334, 76.92307692307693, 90.9090909090909, 76.92307692307693]"
SpSfX0ZcfcPLdlOENlfdfvEPwru2,prp,336.0,120.0,95.0,515.0,806.0,1350.0,1337.0,96.66666666666669,938.0,1026.0,,,,,,,,,,,,,,,,,,,,,,1106.0,,,,,
SpSfX0ZcfcPLdlOENlfdfvEPwru2,stroop,159.0,,,,,,,,,,2.0,99.07407407407408,854.0,851.0,852.0,108.0,,,,,,,,,,,,,,,,,,,,,
SpSfX0ZcfcPLdlOENlfdfvEPwru2,wcst,168.0,,,,,,,,,,,,,,,,60.0,3.0,20.0,4.0,72.0,63.0,2025-11-21T18:45:58.895,83.33333333333334,6.0,9.0,6.0,11.0,,27.77777777777778,0.0,,4.662004662004662,0.6666666666666679,True,3.0,"[90.9090909090909, 76.92307692307693, 76.92307692307693, 76.92307692307693, 90.9090909090909, 90.9090909090909]"
aM2995jJmJWvr6cneaGH58HauIg2,prp,336.0,120.0,99.16666666666669,625.0,866.0,1238.0,1256.0,98.33333333333331,1372.0,1005.0,,,,,,,,,,,,,,,,,,,,,,1042.0,,,,,
aM2995jJmJWvr6cneaGH58HauIg2,stroop,186.0,,,,,,,,,,358.0,95.37037037037037,1247.0,1031.0,889.0,108.0,,,,,,,,,,,,,,,,,,,,,
aM2995jJmJWvr6cneaGH58HauIg2,wcst,187.0,,,,,,,,,,,,,,,,68.0,5.0,29.0,6.0,87.0,73.0,2025-11-20T23:26:06.836,78.16091954022988,6.0,14.0,9.0,13.0,,33.33333333333333,0.0,,10.392156862745097,-1.0,True,5.0,"[76.92307692307693, 83.33333333333334, 58.82352941176471, 83.33333333333334, 90, 76.92307692307693]"
Wfo71fsX1VVfPZnzhT7HEYBTwnq1,prp,325.0,120.0,100.0,530.0,826.0,1195.0,1183.0,100.0,855.0,942.0,,,,,,,,,,,,,,,,,,,,,,976.0,,,,,
Wfo71fsX1VVfPZnzhT7HEYBTwnq1,stroop,151.0,,,,,,,,,,176.0,100.0,881.0,774.0,705.0,108.0,,,,,,,,,,,,,,,,,,,,,
Wfo71fsX1VVfPZnzhT7HEYBTwnq1,wcst,176.0,,,,,,,,,,,,,,,,60.0,3.0,23.0,6.0,72.0,60.0,2025-11-21T10:44:00.195,83.33333333333334,6.0,12.0,9.0,13.0,,31.944444444444443,0.0,,4.662004662004662,0.6666666666666679,True,5.0,"[76.92307692307693, 90.9090909090909, 76.92307692307693, 90.9090909090909, 76.92307692307693, 90.9090909090909]"
m69r9GQTk2b51mvxrFLt4fZeJi52,prp,325.0,120.0,98.33333333333331,598.0,814.0,1222.0,1175.0,97.5,1345.0,963.0,,,,,,,,,,,,,,,,,,,,,,1018.0,,,,,
m69r9GQTk2b51mvxrFLt4fZeJi52,stroop,148.0,,,,,,,,,,144.0,98.14814814814817,823.0,759.0,679.0,108.0,,,,,,,,,,,,,,,,,,,,,
m69r9GQTk2b51mvxrFLt4fZeJi52,wcst,194.0,,,,,,,,,,,,,,,,67.0,2.0,27.0,4.0,81.0,70.0,2025-11-21T12:09:11.269,82.71604938271605,6.0,11.0,9.0,11.0,,33.33333333333333,0.0,,-11.35392385392386,-5.0,True,3.0,"[90.9090909090909, 90.9090909090909, 90.9090909090909, 70.83333333333334, 90.9090909090909, 76.92307692307693]"
d9rwc0NXArcNlJvFsgKhQqkGxJq2,prp,349.0,120.0,96.66666666666669,853.0,957.0,1319.0,1275.0,93.33333333333331,1140.0,1106.0,,,,,,,,,,,,,,,,,,,,,,1127.0,,,,,
d9rwc0NXArcNlJvFsgKhQqkGxJq2,stroop,159.0,,,,,,,,,,241.0,100.0,986.0,847.0,745.0,108.0,,,,,,,,,,,,,,,,,,,,,
d9rwc0NXArcNlJvFsgKhQqkGxJq2,wcst,238.0,,,,,,,,,,,,,,,,74.0,4.0,25.0,3.0,88.0,76.0,2025-11-21T14:45:45.655,84.0909090909091,6.0,12.0,8.0,19.0,,28.40909090909091,0.0,,-2.1633337422810968,5.333333333333332,True,2.0,"[89.47368421052632, 90.9090909090909, 77.27272727272727, 76.92307692307693, 90.9090909090909, 83.33333333333334]"
uM3kxG78g5ZtXtbAEzZyM4XFmaI3,prp,347.0,120.0,100.0,579.0,958.0,1434.0,1472.0,98.33333333333331,968.0,1126.0,,,,,,,,,,,,,,,,,,,,,,1155.0,,,,,
uM3kxG78g5ZtXtbAEzZyM4XFmaI3,stroop,170.0,,,,,,,,,,35.0,100.0,999.0,955.0,964.0,108.0,,,,,,,,,,,,,,,,,,,,,
uM3kxG78g5ZtXtbAEzZyM4XFmaI3,wcst,255.0,,,,,,,,,,,,,,,,60.0,5.0,22.0,9.0,83.0,70.0,2025-11-21T22:00:18.537,72.28915662650603,6.0,13.0,8.0,16.0,,26.506024096385545,0.0,,6.050893550893534,1.0,True,8.0,"[62.5, 71.42857142857143, 76.92307692307693, 71.42857142857143, 90.9090909090909, 66.66666666666666]"
WqoZv41KTtTCuPKBPyClregrKAi1,prp,352.0,120.0,93.33333333333331,738.0,1097.0,1419.0,1547.0,94.16666666666669,955.0,1206.0,,,,,,,,,,,,,,,,,,,,,,1232.0,,,,,
WqoZv41KTtTCuPKBPyClregrKAi1,stroop,166.0,,,,,,,,,,237.0,100.0,1068.0,924.0,830.0,108.0,,,,,,,,,,,,,,,,,,,,,
WqoZv41KTtTCuPKBPyClregrKAi1,wcst,229.0,,,,,,,,,,,,,,,,69.0,8.0,24.0,11.0,89.0,75.0,2025-11-22T00:10:01.810,77.52808988764045,6.0,14.0,6.0,25.0,,26.96629213483146,1.0,,28.328671328671305,8.999999999999998,True,10.0,"[64, 65, 76.92307692307693, 90.9090909090909, 100, 100]"
Yco8O7tmHlbsUBfKW2ywcZByGO32,prp,340.0,120.0,99.16666666666669,809.0,894.0,1439.0,1211.0,97.5,1031.0,1060.0,,,,,,,,,,,,,,,,,,,,,,938.0,,,,,
Yco8O7tmHlbsUBfKW2ywcZByGO32,stroop,168.0,,,,,,,,,,173.0,99.07407407407408,1043.0,935.0,870.0,108.0,,,,,,,,,,,,,,,,,,,,,
Yco8O7tmHlbsUBfKW2ywcZByGO32,wcst,178.0,,,,,,,,,,,,,,,,60.0,0.0,14.0,3.0,66.0,63.0,2025-11-22T22:23:30.173,90.9090909090909,6.0,3.0,3.0,10.0,,21.21212121212121,0.0,,5.167055167055182,0.6666666666666679,True,2.0,"[100, 90.9090909090909, 76.92307692307693, 83.33333333333334, 100, 100]"
xHctBv4C2EU8rHYRouw0btT3GT02,prp,348.0,120.0,98.33333333333331,878.0,969.0,1330.0,1262.0,99.16666666666669,1234.0,1128.0,,,,,,,,,,,,,,,,,,,,,,1193.0,,,,,
xHctBv4C2EU8rHYRouw0btT3GT02,stroop,150.0,,,,,,,,,,198.0,96.29629629629628,865.0,749.0,668.0,108.0,,,,,,,,,,,,,,,,,,,,,
xHctBv4C2EU8rHYRouw0btT3GT02,wcst,242.0,,,,,,,,,,,,,,,,60.0,9.0,30.0,6.0,90.0,70.0,2025-11-23T15:32:45.191,66.66666666666666,6.0,20.0,11.0,13.0,,33.33333333333333,0.0,,-20.23979107312441,-6.0,True,5.0,"[76.92307692307693, 90.9090909090909, 83.33333333333334, 90.9090909090909, 37.03703703703704, 62.5]"
SOhR7IO689NQCPQu56SjATO8FR92,prp,390.0,120.0,94.16666666666669,983.0,1281.0,1761.0,1572.0,94.16666666666669,1455.0,1440.0,,,,,,,,,,,,,,,,,,,,,,1587.0,,,,,
SOhR7IO689NQCPQu56SjATO8FR92,stroop,173.0,,,,,,,,,,355.0,94.44444444444444,1159.0,977.0,804.0,108.0,,,,,,,,,,,,,,,,,,,,,
SOhR7IO689NQCPQu56SjATO8FR92,wcst,251.0,,,,,,,,,,,,,,,,66.0,9.0,36.0,7.0,100.0,74.0,2025-11-23T15:53:13.119,66.0,6.0,26.0,17.0,14.0,,36.0,0.0,,-23.16017316017317,-8.666666666666666,True,6.0,"[71.42857142857143, 83.33333333333334, 90.9090909090909, 71.42857142857143, 47.61904761904761, 57.14285714285714]"
idP8RVfm74N86O0dszLXANIpjXv2,prp,327.0,120.0,98.33333333333331,523.0,635.0,1134.0,1032.0,96.66666666666669,1024.0,861.0,,,,,,,,,,,,,,,,,,,,,,1001.0,,,,,
idP8RVfm74N86O0dszLXANIpjXv2,stroop,168.0,,,,,,,,,,4.0,98.14814814814817,951.0,943.0,947.0,108.0,,,,,,,,,,,,,,,,,,,,,
idP8RVfm74N86O0dszLXANIpjXv2,wcst,193.0,,,,,,,,,,,,,,,,60.0,4.0,21.0,6.0,74.0,65.0,2025-12-01T19:41:38.057,81.08108108108108,6.0,9.0,5.0,13.0,,28.37837837837838,0.0,,4.662004662004662,0.6666666666666661,True,5.0,"[76.92307692307693, 83.33333333333334, 76.92307692307693, 76.92307692307693, 90.9090909090909, 83.33333333333334]"
mweMgSlGM2VxThhwnupYxYzUbR23,prp,333.0,120.0,97.5,712.0,903.0,1174.0,1423.0,99.16666666666669,1060.0,1028.0,,,,,,,,,,,,,,,,,,,,,,944.0,,,,,
mweMgSlGM2VxThhwnupYxYzUbR23,stroop,144.0,,,,,,,,,,106.0,100.0,758.0,722.0,652.0,108.0,,,,,,,,,,,,,,,,,,,,,
mweMgSlGM2VxThhwnupYxYzUbR23,wcst,178.0,,,,,,,,,,,,,,,,64.0,5.0,17.0,10.0,80.0,69.0,2025-11-24T11:54:16.227,80.0,6.0,11.0,6.0,17.0,,21.25,0.0,,17.058823529411754,1.333333333333334,True,9.0,"[58.82352941176471, 76.92307692307693, 83.33333333333334, 100, 93.33333333333333, 76.92307692307693]"
9Xz1RIwnPXgyRqmucudW9VeuDnq1,prp,348.0,120.0,95.83333333333331,801.0,982.0,1448.0,1260.0,97.5,1323.0,1130.0,,,,,,,,,,,,,,,,,,,,,,1171.0,,,,,
9Xz1RIwnPXgyRqmucudW9VeuDnq1,stroop,198.0,,,,,,,,,,225.0,95.37037037037037,1283.0,1164.0,1057.0,108.0,,,,,,,,,,,,,,,,,,,,,
9Xz1RIwnPXgyRqmucudW9VeuDnq1,wcst,174.0,,,,,,,,,,,,,,,,60.0,1.0,20.0,6.0,71.0,62.0,2025-11-24T12:03:41.235,84.50704225352112,6.0,9.0,8.0,13.0,,28.169014084507044,0.0,,7.187257187257174,1.0,True,5.0,"[76.92307692307693, 83.33333333333334, 83.33333333333334, 90.9090909090909, 90.9090909090909, 83.33333333333334]"
ohl9pXqpeSMfepC3w9h0tW5SbJw1,prp,342.0,120.0,98.33333333333331,721.0,862.0,1505.0,1334.0,100.0,1250.0,1078.0,,,,,,,,,,,,,,,,,,,,,,969.0,,,,,
ohl9pXqpeSMfepC3w9h0tW5SbJw1,stroop,208.0,,,,,,,,,,279.0,100.0,1433.0,1311.0,1154.0,108.0,,,,,,,,,,,,,,,,,,,,,
ohl9pXqpeSMfepC3w9h0tW5SbJw1,wcst,218.0,,,,,,,,,,,,,,,,60.0,4.0,17.0,7.0,74.0,63.0,2025-11-24T13:21:57.078,81.08108108108108,6.0,11.0,7.0,14.0,,22.97297297297297,0.0,,12.04906204906206,2.0,True,6.0,"[71.42857142857143, 66.66666666666666, 90.9090909090909, 83.33333333333334, 90.9090909090909, 90.9090909090909]"
9l7DjYLs0XdgwykPZR5E01KTZfu2,prp,371.0,120.0,91.66666666666669,862.0,1133.0,1637.0,1351.0,92.5,1504.0,1221.0,,,,,,,,,,,,,,,,,,,,,,1119.0,,,,,
9l7DjYLs0XdgwykPZR5E01KTZfu2,stroop,153.0,,,,,,,,,,139.0,97.2222222222222,875.0,794.0,736.0,108.0,,,,,,,,,,,,,,,,,,,,,
9l7DjYLs0XdgwykPZR5E01KTZfu2,wcst,193.0,,,,,,,,,,,,,,,,67.0,1.0,23.0,3.0,75.0,67.0,2025-11-24T15:37:17.193,89.33333333333333,6.0,8.0,7.0,10.0,,30.666666666666664,0.0,,-6.349206349206341,-3.666666666666668,True,2.0,"[100, 90.9090909090909, 90.9090909090909, 90.9090909090909, 90.9090909090909, 80.95238095238095]"
rFV2EUbp64f5ORSh7DqwmCQmeqT2,prp,386.0,120.0,97.5,820.0,1267.0,1578.0,1678.0,96.66666666666669,1415.0,1378.0,,,,,,,,,,,,,,,,,,,,,,1575.0,,,,,
rFV2EUbp64f5ORSh7DqwmCQmeqT2,stroop,172.0,,,,,,,,,,0.0,99.07407407407408,975.0,966.0,975.0,108.0,,,,,,,,,,,,,,,,,,,,,
rFV2EUbp64f5ORSh7DqwmCQmeqT2,wcst,280.0,,,,,,,,,,,,,,,,74.0,5.0,31.0,9.0,95.0,79.0,2025-11-25T10:46:01.197,77.89473684210526,6.0,16.0,11.0,16.0,,32.631578947368425,0.0,,8.774558774558756,-1.666666666666668,True,8.0,"[62.5, 87.5, 76.92307692307693, 71.42857142857143, 90.9090909090909, 90.9090909090909]"
h52Mz0cZjnOsmXT02EgU3JzzRKs2,prp,286.0,120.0,98.33333333333331,471.0,506.0,738.0,746.0,99.16666666666669,780.0,632.0,,,,,,,,,,,,,,,,,,,,,,703.0,,,,,
h52Mz0cZjnOsmXT02EgU3JzzRKs2,stroop,135.0,,,,,,,,,,78.0,97.2222222222222,668.0,630.0,589.0,108.0,,,,,,,,,,,,,,,,,,,,,
h52Mz0cZjnOsmXT02EgU3JzzRKs2,wcst,157.0,,,,,,,,,,,,,,,,60.0,6.0,12.0,12.0,70.0,64.0,2025-12-09T18:21:12.128,85.71428571428571,6.0,6.0,0.0,19.0,,17.142857142857142,0.0,,18.81977671451357,3.333333333333334,True,11.0,"[52.63157894736842, 90.9090909090909, 100, 100, 100, 100]"
bXpFswkI7TfIfL6G4FqWrbaxTGx2,prp,289.0,120.0,95.0,428.0,547.0,771.0,779.0,90.83333333333331,780.0,641.0,,,,,,,,,,,,,,,,,,,,,,649.0,,,,,
bXpFswkI7TfIfL6G4FqWrbaxTGx2,stroop,141.0,,,,,,,,,,190.0,96.29629629629628,804.0,686.0,615.0,108.0,,,,,,,,,,,,,,,,,,,,,
bXpFswkI7TfIfL6G4FqWrbaxTGx2,wcst,186.0,,,,,,,,,,,,,,,,70.0,8.0,26.0,9.0,90.0,75.0,2025-11-25T15:21:03.594,77.77777777777779,6.0,15.0,7.0,16.0,,28.88888888888889,1.0,,-8.66032116032116,-5.333333333333334,True,8.0,"[62.5, 90.9090909090909, 100, 76.92307692307693, 72.72727272727273, 77.77777777777779]"
XehZHBpwr5MYzUXkj0FAYCsFG922,prp,357.0,120.0,96.66666666666669,822.0,1074.0,1505.0,1353.0,99.16666666666669,1555.0,1197.0,,,,,,,,,,,,,,,,,,,,,,1243.0,,,,,
XehZHBpwr5MYzUXkj0FAYCsFG922,stroop,144.0,,,,,,,,,,129.0,97.2222222222222,788.0,714.0,658.0,108.0,,,,,,,,,,,,,,,,,,,,,
XehZHBpwr5MYzUXkj0FAYCsFG922,wcst,286.0,,,,,,,,,,,,,,,,71.0,8.0,44.0,8.0,115.0,84.0,2025-11-25T22:13:03.712,61.73913043478261,6.0,31.0,23.0,15.0,,38.26086956521739,0.0,,1.851851851851848,-1.666666666666668,True,7.0,"[66.66666666666666, 62.5, 54.166666666666664, 55.55555555555556, 66.66666666666666, 66.66666666666666]"
DAKDKPH698P12JfTbbjemLI6PIH2,prp,304.0,120.0,100.0,428.0,559.0,1109.0,1010.0,100.0,855.0,778.0,,,,,,,,,,,,,,,,,,,,,,781.0,,,,,
DAKDKPH698P12JfTbbjemLI6PIH2,stroop,135.0,,,,,,,,,,66.0,100.0,665.0,634.0,599.0,108.0,,,,,,,,,,,,,,,,,,,,,
DAKDKPH698P12JfTbbjemLI6PIH2,wcst,205.0,,,,,,,,,,,,,,,,67.0,8.0,23.0,9.0,86.0,71.0,2025-11-26T00:54:08.247,77.90697674418605,6.0,15.0,7.0,16.0,,26.744186046511626,1.0,,-4.399766899766888,-3.333333333333334,True,8.0,"[62.5, 90.9090909090909, 90.9090909090909, 76.92307692307693, 77.27272727272727, 76.92307692307693]"
3WijiOiVCoMbn80F05SPYsxl0TC2,prp,320.0,120.0,100.0,564.0,699.0,1118.0,1038.0,99.16666666666669,862.0,856.0,,,,,,,,,,,,,,,,,,,,,,870.0,,,,,
3WijiOiVCoMbn80F05SPYsxl0TC2,stroop,159.0,,,,,,,,,,44.0,100.0,874.0,842.0,831.0,108.0,,,,,,,,,,,,,,,,,,,,,
3WijiOiVCoMbn80F05SPYsxl0TC2,wcst,209.0,,,,,,,,,,,,,,,,60.0,7.0,19.0,7.0,80.0,64.0,2025-11-26T14:56:53.713,75.0,6.0,16.0,9.0,14.0,,23.75,0.0,,-2.9761904761904674,-0.6666666666666661,True,6.0,"[71.42857142857143, 83.33333333333334, 76.92307692307693, 76.92307692307693, 62.5, 83.33333333333334]"
qnR5PLX1v3fPi6SwTJMwGcadwyD3,prp,316.0,120.0,95.83333333333331,469.0,713.0,975.0,1188.0,94.16666666666669,809.0,864.0,,,,,,,,,,,,,,,,,,,,,,964.0,,,,,
qnR5PLX1v3fPi6SwTJMwGcadwyD3,stroop,156.0,,,,,,,,,,279.0,97.2222222222222,961.0,810.0,682.0,108.0,,,,,,,,,,,,,,,,,,,,,
qnR5PLX1v3fPi6SwTJMwGcadwyD3,wcst,169.0,,,,,,,,,,,,,,,,63.0,2.0,28.0,3.0,82.0,68.0,2025-11-27T18:25:19.962,76.82926829268293,6.0,14.0,12.0,10.0,,34.14634146341464,0.0,,14.699627857522586,4.666666666666666,True,2.0,"[100, 68.42105263157895, 52.63157894736842, 83.33333333333334, 90.9090909090909, 90.9090909090909]"
UbwuSMtBsHdW3Ji41opk3GInMqi2,prp,314.0,120.0,98.33333333333331,625.0,703.0,973.0,1106.0,98.33333333333331,777.0,875.0,,,,,,,,,,,,,,,,,,,,,,964.0,,,,,
UbwuSMtBsHdW3Ji41opk3GInMqi2,stroop,147.0,,,,,,,,,,62.0,99.07407407407408,779.0,754.0,717.0,108.0,,,,,,,,,,,,,,,,,,,,,
UbwuSMtBsHdW3Ji41opk3GInMqi2,wcst,164.0,,,,,,,,,,,,,,,,63.0,3.0,22.0,7.0,77.0,68.0,2025-11-28T03:22:44.058,81.81818181818183,6.0,9.0,6.0,14.0,,28.57142857142857,0.0,,1.137057387057382,-1.0,True,6.0,"[71.42857142857143, 90.9090909090909, 83.33333333333334, 90.9090909090909, 76.92307692307693, 81.25]"
cC0BEsQjfrcuCyoaOas9zJT0MNs2,prp,365.0,120.0,98.33333333333331,859.0,1168.0,1490.0,1313.0,96.66666666666669,1491.0,1238.0,,,,,,,,,,,,,,,,,,,,,,1342.0,,,,,
cC0BEsQjfrcuCyoaOas9zJT0MNs2,stroop,174.0,,,,,,,,,,26.0,100.0,1051.0,989.0,1025.0,108.0,,,,,,,,,,,,,,,,,,,,,
cC0BEsQjfrcuCyoaOas9zJT0MNs2,wcst,261.0,,,,,,,,,,,,,,,,78.0,4.0,56.0,3.0,120.0,85.0,2025-11-28T13:42:03.397,65.0,6.0,35.0,31.0,10.0,,46.66666666666666,1.0,,0.8735072976559195,11.333333333333334,True,2.0,"[100, 52.63157894736842, 58.333333333333336, 58.82352941176471, 71.42857142857143, 83.33333333333334]"
Cbkx2NHyF3NrebzXGqNgSfiWent1,prp,322.0,120.0,100.0,626.0,754.0,1101.0,1179.0,100.0,1097.0,923.0,,,,,,,,,,,,,,,,,,,,,,957.0,,,,,
Cbkx2NHyF3NrebzXGqNgSfiWent1,stroop,158.0,,,,,,,,,,206.0,99.07407407407408,970.0,849.0,765.0,108.0,,,,,,,,,,,,,,,,,,,,,
Cbkx2NHyF3NrebzXGqNgSfiWent1,wcst,155.0,,,,,,,,,,,,,,,,60.0,3.0,19.0,6.0,71.0,63.0,2025-11-28T14:37:03.031,84.50704225352112,6.0,8.0,5.0,13.0,,26.76056338028169,0.0,,-2.525252525252526,-0.3333333333333339,True,5.0,"[76.92307692307693, 90.9090909090909, 90.9090909090909, 90.9090909090909, 83.33333333333334, 76.92307692307693]"
Z3GikGkUkjMOa6UK1xdIDvuGRHp2,prp,316.0,120.0,96.66666666666669,538.0,630.0,1076.0,1156.0,97.5,858.0,860.0,,,,,,,,,,,,,,,,,,,,,,922.0,,,,,
Z3GikGkUkjMOa6UK1xdIDvuGRHp2,stroop,152.0,,,,,,,,,,164.0,98.14814814814817,894.0,792.0,730.0,108.0,,,,,,,,,,,,,,,,,,,,,
Z3GikGkUkjMOa6UK1xdIDvuGRHp2,wcst,218.0,,,,,,,,,,,,,,,,76.0,1.0,30.0,3.0,87.0,78.0,2025-11-28T21:14:09.362,87.35632183908046,6.0,9.0,8.0,17.0,,34.48275862068966,1.0,,0.2086475615887622,-1.666666666666668,True,2.0,"[94.11764705882352, 90.9090909090909, 76.92307692307693, 85, 86.66666666666667, 90.9090909090909]"
146QT9LupyU2BAiTsB3PMIpVXM22,prp,308.0,120.0,97.5,517.0,732.0,1031.0,923.0,94.16666666666669,796.0,777.0,,,,,,,,,,,,,,,,,,,,,,677.0,,,,,
146QT9LupyU2BAiTsB3PMIpVXM22,stroop,153.0,,,,,,,,,,120.0,99.07407407407408,883.0,793.0,763.0,108.0,,,,,,,,,,,,,,,,,,,,,
146QT9LupyU2BAiTsB3PMIpVXM22,wcst,168.0,,,,,,,,,,,,,,,,64.0,2.0,23.0,3.0,77.0,68.0,2025-11-29T11:59:15.301,83.11688311688312,6.0,9.0,7.0,10.0,,29.87012987012987,0.0,,-14.62842712842712,-3.666666666666666,True,2.0,"[100, 90.9090909090909, 83.33333333333334, 71.42857142857143, 71.42857142857143, 87.5]"
tB4wPBbnWJUXeOC3Zxjph0Esgjf1,prp,381.0,120.0,87.5,899.0,947.0,1504.0,1486.0,86.66666666666667,1274.0,1231.0,,,,,,,,,,,,,,,,,,,,,,1304.0,,,,,
tB4wPBbnWJUXeOC3Zxjph0Esgjf1,stroop,214.0,,,,,,,,,,313.0,97.2222222222222,1526.0,1333.0,1213.0,108.0,,,,,,,,,,,,,,,,,,,,,
tB4wPBbnWJUXeOC3Zxjph0Esgjf1,wcst,390.0,,,,,,,,,,,,,,,,71.0,4.0,49.0,5.0,113.0,82.0,2025-11-29T12:13:35.751,62.83185840707964,6.0,31.0,27.0,12.0,,43.36283185840708,0.0,,-8.557625948930287,-1.0,True,4.0,"[83.33333333333334, 73.91304347826086, 50, 66.66666666666666, 43.47826086956522, 71.42857142857143]"
87w5Le0CgZhSfYAaOH3Xd2fc98l1,prp,354.0,120.0,100.0,815.0,1000.0,1523.0,1536.0,98.33333333333331,1026.0,1207.0,,,,,,,,,,,,,,,,,,,,,,1189.0,,,,,
87w5Le0CgZhSfYAaOH3Xd2fc98l1,stroop,217.0,,,,,,,,,,90.0,98.14814814814817,1462.0,1369.0,1371.0,108.0,,,,,,,,,,,,,,,,,,,,,
87w5Le0CgZhSfYAaOH3Xd2fc98l1,wcst,452.0,,,,,,,,,,,,,,,,73.0,30.0,37.0,35.0,128.0,84.0,2025-11-30T00:03:00.849,57.03125,5.0,44.0,14.0,46.0,,28.90625,0.0,,0.0,0.0,True,34.0,"[28.26086956521739, 50, 78.26086956521739, 81.25, 76.92307692307693]"
HbydnnT1hUP3WagAy2TJAc6GqVs2,prp,337.0,120.0,100.0,817.0,859.0,1325.0,1091.0,100.0,1451.0,1043.0,,,,,,,,,,,,,,,,,,,,,,1121.0,,,,,
HbydnnT1hUP3WagAy2TJAc6GqVs2,stroop,170.0,,,,,,,,,,67.0,100.0,1009.0,955.0,942.0,108.0,,,,,,,,,,,,,,,,,,,,,
HbydnnT1hUP3WagAy2TJAc6GqVs2,wcst,195.0,,,,,,,,,,,,,,,,60.0,3.0,15.0,5.0,67.0,62.0,2025-11-30T00:04:18.156,89.55223880597015,6.0,5.0,2.0,12.0,,22.388059701492537,0.0,,3.923853923853926,0.3333333333333339,True,4.0,"[83.33333333333334, 90.9090909090909, 90.9090909090909, 76.92307692307693, 100, 100]"
EoToosG69XMp4LTYdB6sB9WTrv22,prp,322.0,120.0,100.0,592.0,847.0,1252.0,991.0,100.0,784.0,922.0,,,,,,,,,,,,,,,,,,,,,,928.0,,,,,
EoToosG69XMp4LTYdB6sB9WTrv22,stroop,145.0,,,,,,,,,,65.0,99.07407407407408,759.0,728.0,693.0,108.0,,,,,,,,,,,,,,,,,,,,,
EoToosG69XMp4LTYdB6sB9WTrv22,wcst,175.0,,,,,,,,,,,,,,,,60.0,2.0,14.0,5.0,65.0,62.0,2025-11-30T00:07:50.056,92.3076923076923,6.0,3.0,1.0,12.0,,21.53846153846154,0.0,,13.247863247863236,1.666666666666666,True,4.0,"[83.33333333333334, 76.92307692307693, 100, 100, 100, 100]"
1tT7dcLvf0bMGBdBWWYd8YkdJwr1,prp,386.0,120.0,96.66666666666669,939.0,1175.0,1604.0,1472.0,99.16666666666669,1567.0,1381.0,,,,,,,,,,,,,,,,,,,,,,1722.0,,,,,
1tT7dcLvf0bMGBdBWWYd8YkdJwr1,stroop,165.0,,,,,,,,,,-82.0,98.14814814814817,905.0,911.0,987.0,108.0,,,,,,,,,,,,,,,,,,,,,
1tT7dcLvf0bMGBdBWWYd8YkdJwr1,wcst,260.0,,,,,,,,,,,,,,,,71.0,3.0,29.0,4.0,88.0,78.0,2025-11-30T01:47:50.530,80.68181818181817,6.0,10.0,7.0,11.0,,32.95454545454545,1.0,,3.7037037037037095,-4.000000000000002,True,3.0,"[90.9090909090909, 66.66666666666666, 83.33333333333334, 83.33333333333334, 90.9090909090909, 77.77777777777779]"
QbOEVCaZLUMOgltUdXm58oZOALv2,prp,336.0,120.0,98.33333333333331,747.0,873.0,1177.0,1180.0,99.16666666666669,1102.0,1022.0,,,,,,,,,,,,,,,,,,,,,,1139.0,,,,,
QbOEVCaZLUMOgltUdXm58oZOALv2,stroop,183.0,,,,,,,,,,97.0,99.07407407407408,1133.0,1074.0,1036.0,108.0,,,,,,,,,,,,,,,,,,,,,
QbOEVCaZLUMOgltUdXm58oZOALv2,wcst,298.0,,,,,,,,,,,,,,,,67.0,12.0,31.0,3.0,100.0,76.0,2025-11-30T14:59:02.577,67.0,6.0,24.0,12.0,23.0,,31.0,0.0,,-8.372616301005053,-2.0000000000000018,True,2.0,"[56.52173913043478, 76.92307692307693, 90.9090909090909, 45.45454545454545, 82.35294117647058, 71.42857142857143]"
8bwaafIhKVMNBoHaXFcY8HirS9u2,prp,309.0,120.0,100.0,515.0,636.0,1043.0,996.0,98.33333333333331,899.0,804.0,,,,,,,,,,,,,,,,,,,,,,843.0,,,,,
8bwaafIhKVMNBoHaXFcY8HirS9u2,stroop,140.0,,,,,,,,,,24.0,98.14814814814817,687.0,669.0,663.0,108.0,,,,,,,,,,,,,,,,,,,,,
8bwaafIhKVMNBoHaXFcY8HirS9u2,wcst,192.0,,,,,,,,,,,,,,,,70.0,2.0,25.0,4.0,82.0,73.0,2025-11-30T17:26:53.348,85.36585365853658,6.0,9.0,7.0,11.0,,30.48780487804878,0.0,,5.167055167055167,-3.333333333333334,True,3.0,"[90.9090909090909, 83.33333333333334, 76.92307692307693, 83.33333333333334, 83.33333333333334, 100]"
tv88wS5Nf6SjruozSmXJxQSmx6J3,prp,396.0,120.0,93.33333333333331,837.0,1269.0,1762.0,1770.0,87.5,1177.0,1407.0,,,,,,,,,,,,,,,,,,,,,,1497.0,,,,,
tv88wS5Nf6SjruozSmXJxQSmx6J3,stroop,203.0,,,,,,,,,,400.0,98.14814814814817,1498.0,1253.0,1098.0,108.0,,,,,,,,,,,,,,,,,,,,,
tv88wS5Nf6SjruozSmXJxQSmx6J3,wcst,256.0,,,,,,,,,,,,,,,,63.0,2.0,36.0,4.0,81.0,67.0,2025-11-30T19:48:24.368,77.77777777777779,6.0,14.0,12.0,11.0,,44.44444444444444,0.0,,-3.7950937950937913,-1.666666666666668,True,3.0,"[90.9090909090909, 66.66666666666666, 83.33333333333334, 86.66666666666667, 71.42857142857143, 71.42857142857143]"
SPCT9D90pRa1ihXS5jEw6vCmquI3,prp,310.0,120.0,96.66666666666669,509.0,536.0,1088.0,1129.0,95.0,722.0,827.0,,,,,,,,,,,,,,,,,,,,,,851.0,,,,,
SPCT9D90pRa1ihXS5jEw6vCmquI3,stroop,140.0,,,,,,,,,,98.0,97.2222222222222,703.0,686.0,605.0,108.0,,,,,,,,,,,,,,,,,,,,,
SPCT9D90pRa1ihXS5jEw6vCmquI3,wcst,419.0,,,,,,,,,,,,,,,,80.0,23.0,27.0,8.0,128.0,95.0,2025-12-03T13:49:09.914,62.5,5.0,33.0,10.0,65.0,,21.09375,2.0,,0.0,0.0,True,7.0,"[52.307692307692314, 71.42857142857143, 90.9090909090909, 76.92307692307693, 83.33333333333334]"
BcCTlXWx6ARh4rBtkdWRgZH3C7H2,prp,329.0,120.0,98.33333333333331,578.0,743.0,1236.0,1207.0,99.16666666666669,884.0,953.0,,,,,,,,,,,,,,,,,,,,,,1011.0,,,,,
BcCTlXWx6ARh4rBtkdWRgZH3C7H2,stroop,171.0,,,,,,,,,,353.0,98.14814814814817,1188.0,967.0,836.0,108.0,,,,,,,,,,,,,,,,,,,,,
BcCTlXWx6ARh4rBtkdWRgZH3C7H2,wcst,178.0,,,,,,,,,,,,,,,,60.0,5.0,20.0,6.0,77.0,67.0,2025-12-01T23:24:30.840,77.92207792207793,6.0,10.0,5.0,13.0,,25.97402597402597,0.0,,-1.1377511377511524,-0.3333333333333339,True,5.0,"[76.92307692307693, 76.92307692307693, 83.33333333333334, 71.42857142857143, 71.42857142857143, 90.9090909090909]"
5rXSa3anB5ejmFrnwUsTB82byup1,prp,324.0,120.0,99.16666666666669,787.0,725.0,1072.0,1073.0,99.16666666666669,1059.0,938.0,,,,,,,,,,,,,,,,,,,,,,1024.0,,,,,
5rXSa3anB5ejmFrnwUsTB82byup1,stroop,159.0,,,,,,,,,,148.0,100.0,991.0,860.0,843.0,108.0,,,,,,,,,,,,,,,,,,,,,
5rXSa3anB5ejmFrnwUsTB82byup1,wcst,169.0,,,,,,,,,,,,,,,,69.0,4.0,28.0,6.0,85.0,74.0,2025-12-02T00:44:35.191,81.17647058823529,6.0,11.0,7.0,13.0,,32.94117647058823,1.0,,-6.0784313725490335,-1.0,True,5.0,"[76.92307692307693, 90.9090909090909, 88.23529411764706, 90.9090909090909, 76.92307692307693, 70]"
btpcu1rB1JeSTo2upeHGPdv8kYG3,prp,359.0,120.0,91.66666666666669,952.0,1034.0,1498.0,1118.0,96.66666666666669,1605.0,1172.0,,,,,,,,,,,,,,,,,,,,,,1275.0,,,,,
btpcu1rB1JeSTo2upeHGPdv8kYG3,stroop,174.0,,,,,,,,,,299.0,100.0,1146.0,989.0,847.0,108.0,,,,,,,,,,,,,,,,,,,,,
btpcu1rB1JeSTo2upeHGPdv8kYG3,wcst,192.0,,,,,,,,,,,,,,,,60.0,2.0,21.0,4.0,70.0,61.0,2025-12-02T11:10:26.021,85.71428571428571,6.0,9.0,7.0,11.0,,30.0,0.0,,-4.662004662004648,-0.6666666666666661,True,3.0,"[90.9090909090909, 90.9090909090909, 83.33333333333334, 76.92307692307693, 83.33333333333334, 90.9090909090909]"
IaTJhUGICmO9xcL3605RW8QHneN2,prp,322.0,120.0,97.5,543.0,623.0,1301.0,1181.0,96.66666666666669,735.0,918.0,,,,,,,,,,,,,,,,,,,,,,935.0,,,,,
IaTJhUGICmO9xcL3605RW8QHneN2,stroop,147.0,,,,,,,,,,151.0,98.14814814814817,794.0,735.0,643.0,108.0,,,,,,,,,,,,,,,,,,,,,
IaTJhUGICmO9xcL3605RW8QHneN2,wcst,249.0,,,,,,,,,,,,,,,,81.0,7.0,36.0,3.0,108.0,88.0,2025-12-02T17:02:42.938,75.0,6.0,20.0,13.0,16.0,,33.33333333333333,0.0,,9.292048390885611,12.0,True,2.0,"[81.25, 65.11627906976744, 76.92307692307693, 76.92307692307693, 83.33333333333334, 90.9090909090909]"
kI0YdycDU0X5hcoEPjEON3Ionyd2,prp,428.0,120.0,92.5,1145.0,1494.0,1983.0,1978.0,88.33333333333333,1376.0,1677.0,,,,,,,,,,,,,,,,,,,,,,1863.0,,,,,
kI0YdycDU0X5hcoEPjEON3Ionyd2,stroop,165.0,,,,,,,,,,119.0,100.0,992.0,894.0,873.0,108.0,,,,,,,,,,,,,,,,,,,,,
kI0YdycDU0X5hcoEPjEON3Ionyd2,wcst,249.0,,,,,,,,,,,,,,,,68.0,5.0,26.0,7.0,87.0,72.0,2025-12-02T16:01:05.157,78.16091954022988,6.0,15.0,10.0,14.0,,29.88505747126437,0.0,,7.738095238095241,-1.666666666666668,True,6.0,"[71.42857142857143, 90.9090909090909, 62.5, 71.42857142857143, 85.71428571428571, 90.9090909090909]"
YEU5ox3jteVINfdSTg5ymqYcS9o2,prp,295.0,120.0,97.5,448.0,568.0,996.0,852.0,98.33333333333331,873.0,704.0,,,,,,,,,,,,,,,,,,,,,,670.0,,,,,
YEU5ox3jteVINfdSTg5ymqYcS9o2,stroop,134.0,,,,,,,,,,18.0,97.2222222222222,629.0,623.0,611.0,108.0,,,,,,,,,,,,,,,,,,,,,
YEU5ox3jteVINfdSTg5ymqYcS9o2,wcst,189.0,,,,,,,,,,,,,,,,60.0,5.0,19.0,6.0,68.0,61.0,2025-12-02T17:54:42.939,88.23529411764706,6.0,7.0,2.0,13.0,,27.94117647058824,0.0,,9.32400932400931,1.333333333333334,True,5.0,"[76.92307692307693, 76.92307692307693, 100, 90.9090909090909, 100, 90.9090909090909]"
GEwkBw3YHaNp3TCh9YS9PKVfavz1,prp,306.0,120.0,100.0,543.0,621.0,1032.0,958.0,99.16666666666669,956.0,790.0,,,,,,,,,,,,,,,,,,,,,,804.0,,,,,
GEwkBw3YHaNp3TCh9YS9PKVfavz1,stroop,145.0,,,,,,,,,,104.0,99.07407407407408,788.0,722.0,684.0,108.0,,,,,,,,,,,,,,,,,,,,,
GEwkBw3YHaNp3TCh9YS9PKVfavz1,wcst,192.0,,,,,,,,,,,,,,,,60.0,4.0,23.0,11.0,77.0,66.0,2025-12-02T18:46:42.771,77.92207792207793,6.0,11.0,7.0,18.0,,29.87012987012987,0.0,,16.446516446516426,3.0,True,10.0,"[55.55555555555556, 83.33333333333334, 76.92307692307693, 83.33333333333334, 90.9090909090909, 90.9090909090909]"
EEodWwGh0wWq5f8JmzfKvq0lyeu1,prp,337.0,120.0,97.5,693.0,895.0,1288.0,1130.0,90.83333333333331,951.0,1011.0,,,,,,,,,,,,,,,,,,,,,,1078.0,,,,,
EEodWwGh0wWq5f8JmzfKvq0lyeu1,stroop,145.0,,,,,,,,,,153.0,94.44444444444444,814.0,718.0,661.0,108.0,,,,,,,,,,,,,,,,,,,,,
EEodWwGh0wWq5f8JmzfKvq0lyeu1,wcst,215.0,,,,,,,,,,,,,,,,79.0,3.0,30.0,3.0,96.0,82.0,2025-12-02T20:02:00.181,82.29166666666666,6.0,14.0,11.0,10.0,,31.25,1.0,,-5.074462574462586,4.0,True,2.0,"[100, 70.83333333333334, 90, 90.9090909090909, 76.92307692307693, 77.77777777777779]"
c0hRe9PCPPZs3HWFqhIQargNlp52,prp,388.0,120.0,95.0,1190.0,1280.0,1653.0,1527.0,97.5,1645.0,1435.0,,,,,,,,,,,,,,,,,,,,,,1523.0,,,,,
c0hRe9PCPPZs3HWFqhIQargNlp52,stroop,170.0,,,,,,,,,,111.0,99.07407407407408,1017.0,952.0,906.0,108.0,,,,,,,,,,,,,,,,,,,,,
c0hRe9PCPPZs3HWFqhIQargNlp52,wcst,219.0,,,,,,,,,,,,,,,,69.0,3.0,21.0,3.0,85.0,72.0,2025-12-02T21:29:21.919,81.17647058823529,6.0,13.0,10.0,20.0,,24.705882352941178,1.0,,-1.7521367521367497,3.0,True,2.0,"[95, 76.92307692307693, 71.42857142857143, 71.42857142857143, 83.33333333333334, 83.33333333333334]"
biQ16yPcCKSkJQhSxUKcDc8gm8I2,prp,352.0,120.0,97.5,940.0,1062.0,1318.0,1276.0,93.33333333333331,1321.0,1148.0,,,,,,,,,,,,,,,,,,,,,,1178.0,,,,,
biQ16yPcCKSkJQhSxUKcDc8gm8I2,stroop,188.0,,,,,,,,,,109.0,100.0,1214.0,1120.0,1105.0,108.0,,,,,,,,,,,,,,,,,,,,,
biQ16yPcCKSkJQhSxUKcDc8gm8I2,wcst,357.0,,,,,,,,,,,,,,,,82.0,11.0,48.0,6.0,128.0,96.0,2025-12-02T21:57:03.623,64.0625,4.0,32.0,21.0,17.0,,37.5,0.0,,0.0,0.0,True,5.0,"[76.47058823529412, 82.35294117647058, 90.9090909090909, 52.17391304347826]"
OExlWyngGfPrScDYjaRcv5PIAet1,prp,334.0,120.0,98.33333333333331,535.0,891.0,1258.0,1187.0,97.5,935.0,1006.0,,,,,,,,,,,,,,,,,,,,,,1169.0,,,,,
OExlWyngGfPrScDYjaRcv5PIAet1,stroop,149.0,,,,,,,,,,194.0,100.0,868.0,756.0,674.0,108.0,,,,,,,,,,,,,,,,,,,,,
OExlWyngGfPrScDYjaRcv5PIAet1,wcst,157.0,,,,,,,,,,,,,,,,60.0,1.0,16.0,4.0,66.0,62.0,2025-12-02T21:55:13.240,90.9090909090909,6.0,4.0,3.0,11.0,,24.24242424242424,0.0,,10.722610722610696,1.333333333333332,True,3.0,"[90.9090909090909, 76.92307692307693, 90.9090909090909, 100, 90.9090909090909, 100]"
Rmd4rr2vGjOoLvdfYd4EdYyxK3m1,prp,336.0,120.0,100.0,793.0,861.0,1341.0,1165.0,100.0,1030.0,1039.0,,,,,,,,,,,,,,,,,,,,,,1036.0,,,,,
Rmd4rr2vGjOoLvdfYd4EdYyxK3m1,stroop,167.0,,,,,,,,,,183.0,100.0,1041.0,935.0,858.0,108.0,,,,,,,,,,,,,,,,,,,,,
Rmd4rr2vGjOoLvdfYd4EdYyxK3m1,wcst,255.0,,,,,,,,,,,,,,,,66.0,5.0,23.0,6.0,81.0,70.0,2025-12-02T22:01:03.719,81.48148148148148,6.0,11.0,6.0,13.0,,28.39506172839506,1.0,,-1.025641025641022,2.333333333333332,True,5.0,"[76.92307692307693, 80, 90.9090909090909, 76.92307692307693, 76.92307692307693, 90.9090909090909]"
k8j7IpYfd8dYB0L1qyLCcrwoFOy1,prp,353.0,120.0,98.33333333333331,760.0,1118.0,1583.0,1263.0,97.5,1614.0,1147.0,,,,,,,,,,,,,,,,,,,,,,1026.0,,,,,
k8j7IpYfd8dYB0L1qyLCcrwoFOy1,stroop,156.0,,,,,,,,,,52.0,100.0,865.0,815.0,813.0,108.0,,,,,,,,,,,,,,,,,,,,,
k8j7IpYfd8dYB0L1qyLCcrwoFOy1,wcst,296.0,,,,,,,,,,,,,,,,86.0,4.0,35.0,3.0,101.0,90.0,2025-12-03T01:39:40.741,85.14851485148515,6.0,11.0,7.0,10.0,,34.65346534653465,1.0,,-25.48283853879262,-13.666666666666668,True,2.0,"[100, 100, 100, 87.8048780487805, 58.82352941176471, 76.92307692307693]"
VwTymW8T68MfpnJvZ2X97ILqDWS2,prp,376.0,120.0,95.83333333333331,885.0,1303.0,1617.0,1393.0,95.0,1671.0,1332.0,,,,,,,,,,,,,,,,,,,,,,1493.0,,,,,
VwTymW8T68MfpnJvZ2X97ILqDWS2,stroop,172.0,,,,,,,,,,305.0,96.29629629629628,1114.0,980.0,809.0,108.0,,,,,,,,,,,,,,,,,,,,,
VwTymW8T68MfpnJvZ2X97ILqDWS2,wcst,199.0,,,,,,,,,,,,,,,,64.0,3.0,30.0,6.0,81.0,68.0,2025-12-03T03:30:50.937,79.01234567901234,6.0,13.0,10.0,18.0,,37.03703703703704,0.0,,-8.365708365708372,0.3333333333333321,True,5.0,"[77.77777777777779, 90.9090909090909, 83.33333333333334, 66.66666666666666, 76.92307692307693, 83.33333333333334]"
hrRr560eFBNwJ0CcUjCqtSD8TdP2,prp,298.0,120.0,100.0,495.0,624.0,904.0,859.0,97.5,805.0,735.0,,,,,,,,,,,,,,,,,,,,,,806.0,,,,,
hrRr560eFBNwJ0CcUjCqtSD8TdP2,stroop,139.0,,,,,,,,,,43.0,100.0,720.0,679.0,677.0,108.0,,,,,,,,,,,,,,,,,,,,,
hrRr560eFBNwJ0CcUjCqtSD8TdP2,wcst,189.0,,,,,,,,,,,,,,,,69.0,6.0,26.0,10.0,87.0,73.0,2025-12-03T05:13:05.799,79.3103448275862,6.0,14.0,8.0,17.0,,29.88505747126437,1.0,,10.93673305949521,5.666666666666666,True,9.0,"[58.82352941176471, 82.6086956521739, 83.33333333333334, 90.9090909090909, 83.33333333333334, 83.33333333333334]"
0ZtXlQtAJkW6jS21vfMOtNL4OnL2,prp,289.0,120.0,100.0,405.0,471.0,927.0,824.0,95.83333333333331,663.0,662.0,,,,,,,,,,,,,,,,,,,,,,685.0,,,,,
0ZtXlQtAJkW6jS21vfMOtNL4OnL2,stroop,140.0,,,,,,,,,,93.0,98.14814814814817,717.0,690.0,623.0,108.0,,,,,,,,,,,,,,,,,,,,,
0ZtXlQtAJkW6jS21vfMOtNL4OnL2,wcst,177.0,,,,,,,,,,,,,,,,63.0,3.0,28.0,3.0,77.0,66.0,2025-12-03T14:51:02.161,81.81818181818183,6.0,11.0,8.0,10.0,,36.36363636363637,0.0,,4.417020887609127,2.333333333333334,True,2.0,"[100, 86.66666666666667, 58.82352941176471, 76.92307692307693, 90.9090909090909, 90.9090909090909]"
zxG9mUnF7uRkaOKSoCPsiRZzr372,prp,385.0,120.0,96.66666666666669,1055.0,1324.0,1518.0,1406.0,97.5,1498.0,1387.0,,,,,,,,,,,,,,,,,,,,,,1622.0,,,,,
zxG9mUnF7uRkaOKSoCPsiRZzr372,stroop,184.0,,,,,,,,,,260.0,99.07407407407408,1242.0,1076.0,982.0,108.0,,,,,,,,,,,,,,,,,,,,,
zxG9mUnF7uRkaOKSoCPsiRZzr372,wcst,287.0,,,,,,,,,,,,,,,,72.0,10.0,25.0,5.0,96.0,78.0,2025-12-03T15:31:02.513,75.0,6.0,18.0,8.0,24.0,,26.041666666666668,2.0,,21.21212121212121,9.333333333333334,True,4.0,"[70.83333333333334, 62.5, 68.18181818181817, 90.9090909090909, 90.9090909090909, 83.33333333333334]"
CUNlBEszJVRGK1jWlTaOaCqpDg53,prp,358.0,120.0,88.33333333333333,694.0,953.0,1466.0,1404.0,97.5,1132.0,1147.0,,,,,,,,,,,,,,,,,,,,,,1239.0,,,,,
CUNlBEszJVRGK1jWlTaOaCqpDg53,stroop,154.0,,,,,,,,,,99.0,100.0,844.0,789.0,745.0,108.0,,,,,,,,,,,,,,,,,,,,,
CUNlBEszJVRGK1jWlTaOaCqpDg53,wcst,188.0,,,,,,,,,,,,,,,,63.0,1.0,23.0,3.0,76.0,64.0,2025-12-03T17:01:06.958,82.89473684210526,6.0,12.0,11.0,10.0,,30.26315789473684,0.0,,-6.581196581196593,-2.0,True,2.0,"[100, 76.92307692307693, 83.33333333333334, 86.66666666666667, 76.92307692307693, 76.92307692307693]"
06qcrpGKL6Vc3LVplFQC90VAcRm1,prp,288.0,120.0,100.0,476.0,488.0,872.0,762.0,99.16666666666669,695.0,646.0,,,,,,,,,,,,,,,,,,,,,,630.0,,,,,
06qcrpGKL6Vc3LVplFQC90VAcRm1,stroop,141.0,,,,,,,,,,49.0,99.07407407407408,732.0,694.0,683.0,108.0,,,,,,,,,,,,,,,,,,,,,
06qcrpGKL6Vc3LVplFQC90VAcRm1,wcst,172.0,,,,,,,,,,,,,,,,67.0,4.0,25.0,7.0,82.0,69.0,2025-12-03T22:28:30.720,81.70731707317073,6.0,13.0,9.0,14.0,,30.48780487804878,0.0,,4.135309135309143,-2.0,True,6.0,"[71.42857142857143, 76.92307692307693, 90.9090909090909, 83.33333333333334, 83.33333333333334, 85]"
Jp6aXC9KLjcFZBaQdZl4i9dUscl1,prp,331.0,120.0,97.5,574.0,732.0,1253.0,1146.0,97.5,875.0,944.0,,,,,,,,,,,,,,,,,,,,,,1009.0,,,,,
Jp6aXC9KLjcFZBaQdZl4i9dUscl1,stroop,148.0,,,,,,,,,,93.0,100.0,796.0,739.0,704.0,108.0,,,,,,,,,,,,,,,,,,,,,
Jp6aXC9KLjcFZBaQdZl4i9dUscl1,wcst,140.0,,,,,,,,,,,,,,,,60.0,0.0,11.0,3.0,60.0,60.0,2025-12-03T23:01:39.611,100.0,6.0,0.0,0.0,10.0,,18.33333333333333,0.0,,0.0,0.0,True,2.0,"[100, 100, 100, 100, 100, 100]"
g2G9l3no7RbeRA9a1W3JnfegTnh2,prp,322.0,120.0,97.5,575.0,850.0,1240.0,1110.0,95.83333333333331,1040.0,930.0,,,,,,,,,,,,,,,,,,,,,,868.0,,,,,
g2G9l3no7RbeRA9a1W3JnfegTnh2,stroop,193.0,,,,,,,,,,21.0,94.44444444444444,1190.0,1126.0,1170.0,108.0,,,,,,,,,,,,,,,,,,,,,
g2G9l3no7RbeRA9a1W3JnfegTnh2,wcst,252.0,,,,,,,,,,,,,,,,70.0,5.0,39.0,3.0,101.0,79.0,2025-12-04T05:09:43.511,69.3069306930693,6.0,22.0,17.0,10.0,,38.613861386138616,0.0,,7.49601275917064,4.333333333333334,True,2.0,"[100, 68.42105263157895, 50, 90.9090909090909, 90.9090909090909, 59.09090909090909]"
G1Ff3XYUZMRsPafyEQ80ussnVlf1,prp,331.0,120.0,99.16666666666669,541.0,885.0,1159.0,1206.0,90.0,986.0,988.0,,,,,,,,,,,,,,,,,,,,,,1144.0,,,,,
G1Ff3XYUZMRsPafyEQ80ussnVlf1,stroop,172.0,,,,,,,,,,155.0,100.0,1114.0,975.0,958.0,108.0,,,,,,,,,,,,,,,,,,,,,
G1Ff3XYUZMRsPafyEQ80ussnVlf1,wcst,345.0,,,,,,,,,,,,,,,,69.0,13.0,52.0,6.0,128.0,86.0,2025-12-04T13:19:31.294,53.90625,5.0,42.0,29.0,30.0,,40.625,1.0,,0.0,0.0,True,5.0,"[70, 25, 83.33333333333334, 90.9090909090909, 76.92307692307693]"
WnC6Uscb5VMIr43GASKiUCO3AYH2,prp,299.0,120.0,98.33333333333331,418.0,609.0,1159.0,892.0,100.0,851.0,746.0,,,,,,,,,,,,,,,,,,,,,,650.0,,,,,
WnC6Uscb5VMIr43GASKiUCO3AYH2,stroop,137.0,,,,,,,,,,23.0,100.0,667.0,653.0,645.0,108.0,,,,,,,,,,,,,,,,,,,,,
WnC6Uscb5VMIr43GASKiUCO3AYH2,wcst,176.0,,,,,,,,,,,,,,,,60.0,6.0,20.0,10.0,74.0,63.0,2025-12-04T16:08:08.670,81.08108108108108,6.0,11.0,5.0,17.0,,27.027027027027028,0.0,,6.033182503770746,1.333333333333334,True,9.0,"[58.82352941176471, 90.9090909090909, 90.9090909090909, 76.92307692307693, 90.9090909090909, 90.9090909090909]"
e7NIVznoeNMC7bBejXnMVvFNPfx1,prp,329.0,120.0,99.16666666666669,728.0,779.0,1126.0,1192.0,99.16666666666669,1287.0,944.0,,,,,,,,,,,,,,,,,,,,,,895.0,,,,,
e7NIVznoeNMC7bBejXnMVvFNPfx1,stroop,164.0,,,,,,,,,,90.0,99.07407407407408,958.0,895.0,868.0,108.0,,,,,,,,,,,,,,,,,,,,,
e7NIVznoeNMC7bBejXnMVvFNPfx1,wcst,236.0,,,,,,,,,,,,,,,,60.0,6.0,19.0,6.0,76.0,61.0,2025-12-04T20:37:36.715,78.94736842105263,6.0,15.0,9.0,13.0,,25.0,0.0,,0.3052503052503112,0.0,True,5.0,"[76.92307692307693, 83.33333333333334, 76.92307692307693, 83.33333333333334, 83.33333333333334, 71.42857142857143]"
kgSRatooJJfDaMZ2yIURqb8aJuE3,prp,333.0,120.0,100.0,654.0,759.0,1323.0,1263.0,100.0,961.0,1015.0,,,,,,,,,,,,,,,,,,,,,,1074.0,,,,,
kgSRatooJJfDaMZ2yIURqb8aJuE3,stroop,171.0,,,,,,,,,,198.0,99.07407407407408,1057.0,966.0,859.0,108.0,,,,,,,,,,,,,,,,,,,,,
kgSRatooJJfDaMZ2yIURqb8aJuE3,wcst,163.0,,,,,,,,,,,,,,,,60.0,4.0,13.0,5.0,67.0,61.0,2025-12-04T17:56:42.675,89.55223880597015,6.0,6.0,2.0,12.0,,19.402985074626866,0.0,,3.4188034188034067,0.3333333333333339,True,4.0,"[83.33333333333334, 83.33333333333334, 100, 76.92307692307693, 100, 100]"
afdTz6deeYWf1qKNdUpKAYKN3hz1,prp,364.0,120.0,95.0,886.0,1152.0,1435.0,1342.0,96.66666666666669,1224.0,1240.0,,,,,,,,,,,,,,,,,,,,,,1409.0,,,,,
afdTz6deeYWf1qKNdUpKAYKN3hz1,stroop,170.0,,,,,,,,,,332.0,96.29629629629628,1170.0,961.0,838.0,108.0,,,,,,,,,,,,,,,,,,,,,
afdTz6deeYWf1qKNdUpKAYKN3hz1,wcst,618.0,,,,,,,,,,,,,,,,61.0,26.0,38.0,16.0,128.0,81.0,2025-12-04T19:10:37.932,47.65625,3.0,47.0,21.0,49.0,,29.6875,1.0,,0.0,0.0,True,15.0,"[32.6530612244898, 59.32203389830508, 66.66666666666666]"
sqfXvh6GJLaYAqr3RvHrixP8IOx1,prp,387.0,120.0,97.5,882.0,1279.0,1577.0,1593.0,97.5,1524.0,1356.0,,,,,,,,,,,,,,,,,,,,,,1471.0,,,,,
sqfXvh6GJLaYAqr3RvHrixP8IOx1,stroop,164.0,,,,,,,,,,-6.0,98.14814814814817,868.0,893.0,875.0,108.0,,,,,,,,,,,,,,,,,,,,,
sqfXvh6GJLaYAqr3RvHrixP8IOx1,wcst,231.0,,,,,,,,,,,,,,,,66.0,5.0,17.0,4.0,78.0,68.0,2025-12-04T20:39:40.226,84.61538461538461,6.0,10.0,5.0,11.0,,21.7948717948718,1.0,,18.88111888111888,6.0,True,3.0,"[90.9090909090909, 61.53846153846154, 90.9090909090909, 100, 100, 100]"
rNe3cRPepZUXbJhmmfQZiGsVzX22,prp,334.0,120.0,97.5,763.0,733.0,1215.0,1162.0,98.33333333333331,1154.0,959.0,,,,,,,,,,,,,,,,,,,,,,907.0,,,,,
rNe3cRPepZUXbJhmmfQZiGsVzX22,stroop,173.0,,,,,,,,,,74.0,100.0,980.0,967.0,905.0,108.0,,,,,,,,,,,,,,,,,,,,,
rNe3cRPepZUXbJhmmfQZiGsVzX22,wcst,298.0,,,,,,,,,,,,,,,,72.0,17.0,28.0,18.0,112.0,85.0,2025-12-04T22:40:43.580,64.28571428571429,6.0,27.0,10.0,39.0,,25.0,2.0,,22.25938312894835,12.666666666666666,True,17.0,"[56.41025641025641, 43.47826086956522, 76.92307692307693, 83.33333333333334, 76.92307692307693, 83.33333333333334]"
o4jXmZcjtMVF2ZInToRpVHUhpdV2,prp,334.0,120.0,100.0,770.0,813.0,1163.0,1072.0,98.33333333333331,1135.0,973.0,,,,,,,,,,,,,,,,,,,,,,1049.0,,,,,
o4jXmZcjtMVF2ZInToRpVHUhpdV2,stroop,193.0,,,,,,,,,,200.0,100.0,1220.0,1161.0,1019.0,108.0,,,,,,,,,,,,,,,,,,,,,
o4jXmZcjtMVF2ZInToRpVHUhpdV2,wcst,218.0,,,,,,,,,,,,,,,,69.0,2.0,22.0,3.0,74.0,69.0,2025-12-05T15:50:40.836,93.24324324324324,6.0,5.0,3.0,10.0,,29.72972972972973,0.0,,-10.674413305992246,-4.666666666666666,True,2.0,"[100, 100, 100, 92.85714285714286, 84.21052631578947, 90.9090909090909]"
UK6MLdHbCaS4xIz2f3vGdpkbBzG3,prp,286.0,120.0,100.0,405.0,519.0,837.0,754.0,98.33333333333331,772.0,619.0,,,,,,,,,,,,,,,,,,,,,,594.0,,,,,
UK6MLdHbCaS4xIz2f3vGdpkbBzG3,stroop,132.0,,,,,,,,,,105.0,97.2222222222222,675.0,604.0,570.0,108.0,,,,,,,,,,,,,,,,,,,,,
UK6MLdHbCaS4xIz2f3vGdpkbBzG3,wcst,258.0,,,,,,,,,,,,,,,,117.0,11.0,5.0,3.0,128.0,117.0,2025-12-05T15:52:33.686,91.40625,4.0,11.0,0.0,93.0,,3.90625,8.0,,0.0,0.0,True,2.0,"[88.17204301075269, 100, 100, 100]"
cfoKz0AGhvYmW0DJmVKAZ01jh752,prp,309.0,120.0,95.83333333333331,447.0,687.0,1025.0,934.0,97.5,897.0,801.0,,,,,,,,,,,,,,,,,,,,,,917.0,,,,,
cfoKz0AGhvYmW0DJmVKAZ01jh752,stroop,137.0,,,,,,,,,,73.0,99.07407407407408,674.0,649.0,601.0,108.0,,,,,,,,,,,,,,,,,,,,,
cfoKz0AGhvYmW0DJmVKAZ01jh752,wcst,156.0,,,,,,,,,,,,,,,,60.0,3.0,20.0,4.0,77.0,66.0,2025-12-05T17:37:15.818,77.92207792207793,6.0,11.0,8.0,11.0,,25.97402597402597,0.0,,-13.636363636363626,-3.0,True,3.0,"[90.9090909090909, 83.33333333333334, 90.9090909090909, 83.33333333333334, 90.9090909090909, 50]"
KtKj6zUKc5Oogd2itg2jdwkchnf2,prp,289.0,120.0,99.16666666666669,438.0,558.0,898.0,792.0,98.33333333333331,1095.0,660.0,,,,,,,,,,,,,,,,,,,,,,612.0,,,,,
KtKj6zUKc5Oogd2itg2jdwkchnf2,stroop,132.0,,,,,,,,,,126.0,99.07407407407408,689.0,609.0,563.0,108.0,,,,,,,,,,,,,,,,,,,,,
KtKj6zUKc5Oogd2itg2jdwkchnf2,wcst,142.0,,,,,,,,,,,,,,,,60.0,2.0,11.0,5.0,66.0,63.0,2025-12-05T19:05:12.870,90.9090909090909,6.0,3.0,1.0,12.0,,16.666666666666664,0.0,,16.666666666666657,2.0,True,4.0,"[83.33333333333334, 83.33333333333334, 83.33333333333334, 100, 100, 100]"
C4HWhqUIJ3Rl6SboyJGqlrXFAJJ2,prp,315.0,120.0,98.33333333333331,404.0,605.0,1144.0,1153.0,98.33333333333331,995.0,843.0,,,,,,,,,,,,,,,,,,,,,,934.0,,,,,
C4HWhqUIJ3Rl6SboyJGqlrXFAJJ2,stroop,161.0,,,,,,,,,,15.0,99.07407407407408,908.0,860.0,893.0,108.0,,,,,,,,,,,,,,,,,,,,,
C4HWhqUIJ3Rl6SboyJGqlrXFAJJ2,wcst,343.0,,,,,,,,,,,,,,,,83.0,6.0,31.0,8.0,105.0,88.0,2025-12-05T18:38:03.451,79.04761904761905,6.0,17.0,11.0,27.0,,29.52380952380953,1.0,,1.1999075724565813,3.0,True,7.0,"[74.07407407407408, 88.23529411764706, 76.92307692307693, 90.9090909090909, 75, 76.92307692307693]"
DxSidjznjVSNDJuDqqGgxpMEGtw1,prp,404.0,120.0,93.33333333333331,1239.0,1306.0,1678.0,1593.0,93.33333333333331,1345.0,1514.0,,,,,,,,,,,,,,,,,,,,,,1773.0,,,,,
DxSidjznjVSNDJuDqqGgxpMEGtw1,stroop,186.0,,,,,,,,,,141.0,100.0,1193.0,1104.0,1053.0,108.0,,,,,,,,,,,,,,,,,,,,,
DxSidjznjVSNDJuDqqGgxpMEGtw1,wcst,199.0,,,,,,,,,,,,,,,,60.0,1.0,21.0,3.0,68.0,62.0,2025-12-06T17:02:07.893,88.23529411764706,6.0,6.0,5.0,10.0,,30.88235294117647,0.0,,-0.8935508935508949,0.0,True,2.0,"[100, 76.92307692307693, 90.9090909090909, 90.9090909090909, 83.33333333333334, 90.9090909090909]"
JvrZiMHtAfP6gvQtlevYWafKy0z2,prp,318.0,120.0,100.0,462.0,631.0,1193.0,1074.0,100.0,901.0,886.0,,,,,,,,,,,,,,,,,,,,,,1069.0,,,,,
JvrZiMHtAfP6gvQtlevYWafKy0z2,stroop,204.0,,,,,,,,,,199.0,99.07407407407408,1394.0,1268.0,1195.0,108.0,,,,,,,,,,,,,,,,,,,,,
JvrZiMHtAfP6gvQtlevYWafKy0z2,wcst,214.0,,,,,,,,,,,,,,,,60.0,6.0,17.0,6.0,75.0,63.0,2025-12-06T22:19:58.173,80.0,6.0,12.0,6.0,13.0,,22.666666666666664,0.0,,5.167055167055182,1.0,True,5.0,"[76.92307692307693, 66.66666666666666, 90.9090909090909, 83.33333333333334, 83.33333333333334, 83.33333333333334]"
mYRMPGfR5gRSjnp7ojjD5sXo7Jr2,prp,370.0,120.0,96.66666666666669,1016.0,1230.0,1512.0,1480.0,97.5,1478.0,1333.0,,,,,,,,,,,,,,,,,,,,,,1427.0,,,,,
mYRMPGfR5gRSjnp7ojjD5sXo7Jr2,stroop,150.0,,,,,,,,,,187.0,99.07407407407408,853.0,768.0,666.0,108.0,,,,,,,,,,,,,,,,,,,,,
mYRMPGfR5gRSjnp7ojjD5sXo7Jr2,wcst,234.0,,,,,,,,,,,,,,,,60.0,3.0,25.0,3.0,74.0,64.0,2025-12-08T16:20:33.681,81.08108108108108,6.0,10.0,7.0,10.0,,33.78378378378378,0.0,,-19.476819476819472,-3.333333333333334,True,2.0,"[100, 90.9090909090909, 90.9090909090909, 76.92307692307693, 55.55555555555556, 90.9090909090909]"
JOBWLirr6KYf3GXJ3jPFKmd48S93,prp,342.0,120.0,95.0,775.0,1003.0,1254.0,1252.0,96.66666666666669,1252.0,1063.0,,,,,,,,,,,,,,,,,,,,,,1044.0,,,,,
JOBWLirr6KYf3GXJ3jPFKmd48S93,stroop,170.0,,,,,,,,,,74.0,99.07407407407408,982.0,950.0,908.0,108.0,,,,,,,,,,,,,,,,,,,,,
JOBWLirr6KYf3GXJ3jPFKmd48S93,wcst,200.0,,,,,,,,,,,,,,,,64.0,5.0,18.0,5.0,75.0,64.0,2025-12-08T22:03:47.433,85.33333333333334,6.0,11.0,6.0,17.0,,24.0,0.0,,5.377302436125959,2.333333333333332,True,4.0,"[82.35294117647058, 83.33333333333334, 83.33333333333334, 90.9090909090909, 90.9090909090909, 83.33333333333334]"
P8mTl71XaYNvFMTCvlKpzzUdc9W2,prp,357.0,120.0,96.66666666666669,708.0,1115.0,1503.0,1346.0,99.16666666666669,1250.0,1186.0,,,,,,,,,,,,,,,,,,,,,,1267.0,,,,,
P8mTl71XaYNvFMTCvlKpzzUdc9W2,stroop,165.0,,,,,,,,,,175.0,99.07407407407408,1008.0,909.0,833.0,108.0,,,,,,,,,,,,,,,,,,,,,
P8mTl71XaYNvFMTCvlKpzzUdc9W2,wcst,190.0,,,,,,,,,,,,,,,,60.0,4.0,25.0,3.0,80.0,69.0,2025-12-10T00:08:12.460,75.0,6.0,11.0,7.0,10.0,,31.25,0.0,,-12.5,-2.0,True,2.0,"[100, 83.33333333333334, 66.66666666666666, 62.5, 66.66666666666666, 83.33333333333334]"
hOrA1ssI5vaeeeXRJhtjrGrqHQn1,prp,338.0,120.0,99.16666666666669,805.0,826.0,1337.0,1163.0,100.0,1176.0,1073.0,,,,,,,,,,,,,,,,,,,,,,1232.0,,,,,
hOrA1ssI5vaeeeXRJhtjrGrqHQn1,stroop,169.0,,,,,,,,,,65.0,100.0,960.0,947.0,895.0,108.0,,,,,,,,,,,,,,,,,,,,,
hOrA1ssI5vaeeeXRJhtjrGrqHQn1,wcst,178.0,,,,,,,,,,,,,,,,63.0,1.0,28.0,3.0,74.0,67.0,2025-12-09T11:34:16.553,85.13513513513513,6.0,7.0,6.0,10.0,,37.83783783783784,0.0,,4.5634920634920775,0.0,True,2.0,"[100, 90.9090909090909, 62.5, 90.9090909090909, 92.85714285714286, 83.33333333333334]"
2FHuv7L9nWPdbIiWHRIuXtcoyw83,prp,334.0,120.0,89.16666666666667,657.0,596.0,1201.0,1115.0,87.5,1099.0,896.0,,,,,,,,,,,,,,,,,,,,,,946.0,,,,,
2FHuv7L9nWPdbIiWHRIuXtcoyw83,stroop,208.0,,,,,,,,,,281.0,94.44444444444444,1378.0,1245.0,1096.0,108.0,,,,,,,,,,,,,,,,,,,,,
2FHuv7L9nWPdbIiWHRIuXtcoyw83,wcst,167.0,,,,,,,,,,,,,,,,60.0,1.0,25.0,4.0,71.0,62.0,2025-12-09T12:24:03.106,84.50704225352112,6.0,9.0,8.0,11.0,,35.2112676056338,0.0,,-1.8315018315018528,-0.3333333333333339,True,3.0,"[90.9090909090909, 76.92307692307693, 90.9090909090909, 71.42857142857143, 90.9090909090909, 90.9090909090909]"
CN1ySCsiSLN4m9yh9fS4s5p6T8k1,prp,378.0,120.0,95.83333333333331,847.0,1243.0,1755.0,1435.0,93.33333333333331,1287.0,1335.0,,,,,,,,,,,,,,,,,,,,,,1424.0,,,,,
CN1ySCsiSLN4m9yh9fS4s5p6T8k1,stroop,167.0,,,,,,,,,,82.0,100.0,1002.0,928.0,920.0,108.0,,,,,,,,,,,,,,,,,,,,,
CN1ySCsiSLN4m9yh9fS4s5p6T8k1,wcst,235.0,,,,,,,,,,,,,,,,60.0,8.0,21.0,9.0,81.0,64.0,2025-12-10T23:48:42.393,74.07407407407408,6.0,17.0,9.0,16.0,,25.925925925925924,0.0,,-4.451566951566946,-1.0,True,8.0,"[62.5, 83.33333333333334, 90.9090909090909, 55.55555555555556, 90.9090909090909, 76.92307692307693]"
xFaL2YdAmJcWA8oTLXhVCHNqt0K3,prp,341.0,120.0,96.66666666666669,462.0,1123.0,1143.0,1208.0,95.83333333333331,978.0,1036.0,,,,,,,,,,,,,,,,,,,,,,1215.0,,,,,
xFaL2YdAmJcWA8oTLXhVCHNqt0K3,stroop,152.0,,,,,,,,,,152.0,96.29629629629628,894.0,790.0,742.0,108.0,,,,,,,,,,,,,,,,,,,,,
xFaL2YdAmJcWA8oTLXhVCHNqt0K3,wcst,200.0,,,,,,,,,,,,,,,,69.0,1.0,41.0,3.0,97.0,78.0,2025-12-09T12:17:46.611,71.1340206185567,6.0,19.0,18.0,10.0,,42.2680412371134,0.0,,-19.120879120879124,-9.666666666666666,True,2.0,"[100, 83.33333333333334, 83.33333333333334, 45.714285714285715, 86.66666666666667, 76.92307692307693]"
pYrcE6tMnVQP1kHAjYwvIz5NOvn1,prp,346.0,120.0,93.33333333333331,847.0,969.0,1191.0,1086.0,93.33333333333331,1304.0,1026.0,,,,,,,,,,,,,,,,,,,,,,1059.0,,,,,
pYrcE6tMnVQP1kHAjYwvIz5NOvn1,stroop,176.0,,,,,,,,,,49.0,96.29629629629628,966.0,1008.0,917.0,108.0,,,,,,,,,,,,,,,,,,,,,
pYrcE6tMnVQP1kHAjYwvIz5NOvn1,wcst,171.0,,,,,,,,,,,,,,,,71.0,3.0,28.0,3.0,89.0,73.0,2025-12-09T12:26:31.115,79.7752808988764,6.0,16.0,13.0,19.0,,31.46067415730337,1.0,,8.458330168856477,2.9999999999999982,True,2.0,"[94.73684210526315, 71.42857142857143, 62.5, 72.22222222222221, 90.9090909090909, 90.9090909090909]"
3FSnTCSiUodLp5u3bE0xaUjLk0b2,prp,326.0,120.0,98.33333333333331,526.0,797.0,1220.0,1087.0,98.33333333333331,1052.0,920.0,,,,,,,,,,,,,,,,,,,,,,958.0,,,,,
3FSnTCSiUodLp5u3bE0xaUjLk0b2,stroop,159.0,,,,,,,,,,56.0,100.0,879.0,855.0,823.0,108.0,,,,,,,,,,,,,,,,,,,,,
3FSnTCSiUodLp5u3bE0xaUjLk0b2,wcst,213.0,,,,,,,,,,,,,,,,67.0,5.0,28.0,5.0,84.0,71.0,2025-12-09T12:30:18.301,79.76190476190477,6.0,13.0,8.0,12.0,,33.33333333333333,1.0,,-8.703703703703724,-4.666666666666666,True,4.0,"[83.33333333333334, 90.9090909090909, 83.33333333333334, 85, 55.55555555555556, 90.9090909090909]"
c8BtRUVPPPZHjyhX2rn702NoUld2,prp,379.0,120.0,87.5,1006.0,1004.0,1199.0,1531.0,88.33333333333333,1314.0,1199.0,,,,,,,,,,,,,,,,,,,,,,1275.0,,,,,
c8BtRUVPPPZHjyhX2rn702NoUld2,stroop,160.0,,,,,,,,,,264.0,100.0,984.0,860.0,721.0,108.0,,,,,,,,,,,,,,,,,,,,,
c8BtRUVPPPZHjyhX2rn702NoUld2,wcst,245.0,,,,,,,,,,,,,,,,68.0,10.0,26.0,16.0,96.0,77.0,2025-12-09T12:32:20.535,70.83333333333334,6.0,19.0,9.0,23.0,,27.08333333333333,1.0,,1.424662294227517,-1.333333333333334,True,15.0,"[43.47826086956522, 76.92307692307693, 100, 81.81818181818183, 71.42857142857143, 71.42857142857143]"
UbqFccqQZZgcqJIqCn3ErH9zQdM2,prp,298.0,120.0,98.33333333333331,424.0,539.0,1045.0,892.0,95.0,745.0,688.0,,,,,,,,,,,,,,,,,,,,,,538.0,,,,,
UbqFccqQZZgcqJIqCn3ErH9zQdM2,stroop,156.0,,,,,,,,,,31.0,97.2222222222222,855.0,832.0,824.0,108.0,,,,,,,,,,,,,,,,,,,,,
UbqFccqQZZgcqJIqCn3ErH9zQdM2,wcst,227.0,,,,,,,,,,,,,,,,64.0,13.0,18.0,11.0,90.0,70.0,2025-12-09T16:04:23.254,71.11111111111111,6.0,20.0,7.0,30.0,,20.0,0.0,,12.610722610722618,6.0,True,10.0,"[46.666666666666664, 83.33333333333334, 83.33333333333334, 76.92307692307693, 83.33333333333334, 90.9090909090909]"
asKxydfXDkZAk89VaD4hwVovkzJ3,prp,370.0,120.0,98.33333333333331,793.0,1104.0,1537.0,1616.0,94.16666666666669,1131.0,1275.0,,,,,,,,,,,,,,,,,,,,,,1281.0,,,,,
asKxydfXDkZAk89VaD4hwVovkzJ3,stroop,172.0,,,,,,,,,,231.0,98.14814814814817,1096.0,979.0,865.0,108.0,,,,,,,,,,,,,,,,,,,,,
asKxydfXDkZAk89VaD4hwVovkzJ3,wcst,203.0,,,,,,,,,,,,,,,,66.0,2.0,28.0,6.0,81.0,70.0,2025-12-09T16:33:15.237,81.48148148148148,6.0,11.0,9.0,13.0,,34.5679012345679,0.0,,-8.533863797021695,-1.666666666666668,True,5.0,"[76.92307692307693, 92.85714285714286, 90.9090909090909, 68.42105263157895, 83.33333333333334, 83.33333333333334]"
ZEd5KGl23wS7rvzDkxzgqmCgLaC3,prp,355.0,120.0,99.16666666666669,813.0,931.0,1596.0,1371.0,99.16666666666669,1539.0,1194.0,,,,,,,,,,,,,,,,,,,,,,1260.0,,,,,
ZEd5KGl23wS7rvzDkxzgqmCgLaC3,stroop,187.0,,,,,,,,,,281.0,100.0,1245.0,1114.0,963.0,108.0,,,,,,,,,,,,,,,,,,,,,
ZEd5KGl23wS7rvzDkxzgqmCgLaC3,wcst,198.0,,,,,,,,,,,,,,,,65.0,3.0,22.0,4.0,80.0,69.0,2025-12-09T16:31:03.702,81.25,6.0,11.0,8.0,11.0,,27.500000000000004,0.0,,-2.525252525252526,2.0,True,3.0,"[90.9090909090909, 90.9090909090909, 71.42857142857143, 83.33333333333334, 90.9090909090909, 71.42857142857143]"
htPWXDgfuheOJbl6ihHore9XuDp2,prp,340.0,120.0,97.5,716.0,811.0,1369.0,1330.0,99.16666666666669,1330.0,1068.0,,,,,,,,,,,,,,,,,,,,,,1101.0,,,,,
htPWXDgfuheOJbl6ihHore9XuDp2,stroop,158.0,,,,,,,,,,56.0,97.2222222222222,886.0,847.0,830.0,108.0,,,,,,,,,,,,,,,,,,,,,
htPWXDgfuheOJbl6ihHore9XuDp2,wcst,208.0,,,,,,,,,,,,,,,,64.0,7.0,24.0,13.0,81.0,69.0,2025-12-09T18:48:30.793,79.01234567901234,6.0,12.0,5.0,20.0,,29.629629629629623,0.0,,15.025252525252512,1.666666666666668,True,12.0,"[50, 83.33333333333334, 90.9090909090909, 87.5, 90.9090909090909, 90.9090909090909]"
SvtOrPatsnWjicxtyndEzSdO5Wp1,prp,356.0,120.0,97.5,694.0,1026.0,1196.0,1110.0,98.33333333333331,955.0,1000.0,,,,,,,,,,,,,,,,,,,,,,987.0,,,,,
