t2_stim,t1_resp,t1_stim,t1_correct,t2_correctResp,idx,t2_resp,t2_correct,t1_correctResp,t1_rt,t2_resp_ms,participant_id,t1_rt_ms,t1_resp_ms,t2_onset_ms,task,block_index,t2_pressed_while_t1_pending,soa,t1_timeout,t2_timeout,soa_measured_ms,response_order,t1_onset_ms,trial_index,t2_rt,soa_bin
blue,E,4,True,B,0,B,True,E,1110.0,,,,,,,,,50.0,,False,,,,,1652.399999976158,short
red,O,7,True,R,1,R,True,O,1031.2999999523165,,,,,,,,,1200.0,,False,,,,,751.1000000238419,long
red,E,8,True,R,2,R,True,E,1287.9000000953674,,,,,,,,,150.0,,False,,,,,1884.0,short
blue,O,9,True,B,4,B,True,O,1226.600000023842,,,,,,,,,150.0,,False,,,,,1714.0,short
red,E,8,True,R,5,R,True,E,1185.2000000476835,,,,,,,,,150.0,,False,,,,,1785.399999976158,short
red,E,4,True,R,6,R,True,E,1054.5,,,,,,,,,50.0,,False,,,,,1735.5,short
red,E,2,True,R,7,R,True,E,1158.1999999284744,,,,,,,,,1200.0,,False,,,,,874.7999999523163,long
blue,O,1,True,B,8,B,True,O,1134.399999976158,,,,,,,,,1200.0,,False,,,,,789.5,long
red,O,3,True,R,9,R,True,O,1577.1999999284744,,,,,,,,,150.0,,False,,,,,1905.1999999284744,short
red,E,4,True,R,10,R,True,E,972.0,,,,,,,,,1200.0,,False,,,,,858.9000000953674,long
blue,E,2,True,B,11,B,True,E,1256.9000000953674,,,,,,,,,1200.0,,False,,,,,869.1999999284744,long
blue,E,6,True,B,12,B,True,E,1516.7000000476835,,,,,,,,,50.0,,False,,,,,2091.399999976158,short
red,O,3,True,R,13,R,True,O,1300.899999976158,,,,,,,,,50.0,,False,,,,,1798.600000023842,short
red,O,9,True,R,14,R,True,O,1238.6999999284744,,,,,,,,,50.0,,False,,,,,1714.1999999284744,short
blue,O,9,True,B,15,B,True,O,1163.5999999046326,,,,,,,,,1200.0,,False,,,,,879.8000000715256,long
blue,O,3,True,B,17,B,True,O,1317.899999976158,,,,,,,,,150.0,,False,,,,,1822.200000047684,short
red,O,5,True,R,21,R,True,O,902.0,,,,,,,,,150.0,,False,,,,,1430.8000000715256,short
red,O,9,True,R,22,R,True,O,1482.2999999523165,,,,,,,,,150.0,,False,,,,,2108.0,short
red,E,8,True,R,23,R,True,E,1301.600000023842,,,,,,,,,150.0,,False,,,,,1935.0,short
blue,E,4,True,B,24,B,True,E,1379.2999999523165,,,,,,,,,1200.0,,False,,,,,952.899999976158,long
blue,E,6,True,B,26,B,True,E,1369.0,,,,,,,,,150.0,,False,,,,,1890.7999999523165,short
red,O,7,True,R,28,R,True,O,1030.100000023842,,,,,,,,,50.0,,False,,,,,1496.5,short
red,E,4,True,R,29,R,True,E,1149.4000000953674,,,,,,,,,150.0,,False,,,,,1422.399999976158,short
blue,O,3,True,B,30,B,True,O,1325.399999976158,,,,,,,,,50.0,,False,,,,,1882.5,short
red,E,6,True,R,31,R,True,E,2502.7999999523163,,,,,,,,,1200.0,,False,,,,,1671.2000000476835,long
red,E,6,True,R,32,R,True,E,1047.399999976158,,,,,,,,,50.0,,False,,,,,1561.1999999284744,short
red,O,5,True,R,33,R,True,O,1012.3000000715256,,,,,,,,,1200.0,,False,,,,,771.7000000476837,long
blue,O,5,True,B,34,B,True,O,957.8000000715256,,,,,,,,,150.0,,False,,,,,1390.899999976158,short
blue,O,1,True,B,35,B,True,O,983.899999976158,,,,,,,,,150.0,,False,,,,,1391.399999976158,short
blue,O,5,True,B,36,B,True,O,950.899999976158,,,,,,,,,150.0,,False,,,,,1439.7999999523165,short
blue,O,9,True,B,37,B,True,O,1195.0,,,,,,,,,50.0,,False,,,,,1735.6999999284744,short
red,O,9,True,R,38,R,True,O,969.7999999523164,,,,,,,,,50.0,,False,,,,,1558.600000023842,short
red,E,4,True,R,40,R,True,E,1452.600000023842,,,,,,,,,50.0,,False,,,,,2154.200000047684,short
blue,E,2,True,B,41,B,True,E,998.8000000715256,,,,,,,,,150.0,,False,,,,,1447.5,short
blue,O,5,True,B,42,B,True,O,932.5,,,,,,,,,50.0,,False,,,,,1602.1999999284744,short
red,O,9,True,R,43,R,True,O,1145.3000000715256,,,,,,,,,150.0,,False,,,,,1522.600000023842,short
blue,E,8,True,B,46,B,True,E,1367.1999999284744,,,,,,,,,50.0,,False,,,,,1859.899999976158,short
blue,O,9,True,B,49,B,True,O,1283.0,,,,,,,,,1200.0,,False,,,,,834.7000000476837,long
blue,E,6,True,B,50,B,True,E,1233.399999976158,,,,,,,,,150.0,,False,,,,,1699.899999976158,short
blue,E,2,True,B,52,B,True,E,1030.5,,,,,,,,,1200.0,,False,,,,,836.5,long
red,O,9,True,R,57,R,True,O,863.4000000953674,,,,,,,,,1200.0,,False,,,,,822.2000000476837,long
blue,O,9,True,B,58,B,True,O,987.0,,,,,,,,,50.0,,False,,,,,1713.0,short
red,E,2,True,R,59,R,True,E,1077.399999976158,,,,,,,,,50.0,,False,,,,,1570.0,short
blue,E,2,True,B,60,B,True,E,905.1999999284744,,,,,,,,,50.0,,False,,,,,1411.899999976158,short
blue,E,2,True,B,62,B,True,E,876.0,,,,,,,,,150.0,,False,,,,,1276.2000000476835,short
red,E,2,True,R,63,R,True,E,864.6000000238419,,,,,,,,,1200.0,,False,,,,,800.7999999523163,long
blue,O,9,True,B,65,B,True,O,859.6000000238419,,,,,,,,,1200.0,,False,,,,,994.0,long
red,O,7,True,R,66,R,True,O,1370.6999999284744,,,,,,,,,150.0,,False,,,,,1891.6999999284744,short
blue,E,2,True,B,67,B,True,E,861.3000000715256,,,,,,,,,1200.0,,False,,,,,844.2999999523163,long
red,O,3,True,R,69,R,True,O,1409.399999976158,,,,,,,,,50.0,,False,,,,,1893.899999976158,short
red,O,3,True,R,70,R,True,O,892.6000000238419,,,,,,,,,1200.0,,False,,,,,811.1999999284744,long
blue,E,8,True,B,72,B,True,E,932.2000000476836,,,,,,,,,1200.0,,False,,,,,688.7000000476837,long
blue,O,9,True,B,73,B,True,O,1060.899999976158,,,,,,,,,50.0,,False,,,,,1568.899999976158,short
red,O,1,True,R,74,R,True,O,1028.6999999284744,,,,,,,,,50.0,,False,,,,,1657.5,short
blue,E,4,True,B,75,B,True,E,895.0,,,,,,,,,50.0,,False,,,,,1443.5,short
red,E,6,True,R,76,R,True,E,1358.2000000476835,,,,,,,,,150.0,,False,,,,,1735.7000000476835,short
blue,O,5,True,B,77,B,True,O,963.100000023842,,,,,,,,,1200.0,,False,,,,,672.0999999046326,long
red,O,9,True,R,78,R,True,O,1024.4000000953674,,,,,,,,,1200.0,,False,,,,,1008.1999999284744,long
blue,O,9,True,B,79,B,True,O,934.8000000715256,,,,,,,,,150.0,,False,,,,,1344.399999976158,short
blue,E,2,True,B,80,B,True,E,1016.8000000715256,,,,,,,,,150.0,,False,,,,,1361.399999976158,short
red,E,6,True,R,81,R,True,E,1382.899999976158,,,,,,,,,50.0,,False,,,,,1872.2999999523165,short
red,O,5,True,R,82,R,True,O,1168.399999976158,,,,,,,,,150.0,,False,,,,,2073.100000023842,short
blue,O,5,True,B,84,B,True,O,1360.2000000476835,,,,,,,,,50.0,,False,,,,,1978.8000000715256,short
red,E,8,True,R,87,R,True,E,1128.899999976158,,,,,,,,,1200.0,,False,,,,,1217.2000000476835,long
red,O,3,True,R,89,R,True,O,1270.4000000953674,,,,,,,,,1200.0,,False,,,,,1068.4000000953674,long
red,E,2,True,R,90,R,True,E,1206.1999999284744,,,,,,,,,150.0,,False,,,,,1709.0999999046326,short
blue,O,3,True,B,91,B,True,O,981.2999999523164,,,,,,,,,1200.0,,False,,,,,725.1000000238419,long
blue,E,2,True,B,92,B,True,E,1093.3000000715256,,,,,,,,,50.0,,False,,,,,1502.899999976158,short
red,E,4,True,R,93,R,True,E,1409.100000023842,,,,,,,,,1200.0,,False,,,,,960.2000000476836,long
red,E,2,True,R,94,R,True,E,1315.100000023842,,,,,,,,,50.0,,False,,,,,2167.2999999523163,short
red,E,4,True,R,0,R,True,E,,1459919.799999982,GE4hogtdLdTFbNasENgtm6SO3hC3,1781.0,1459412.0,1457702.299999982,prp,,False,50.0,False,False,71.2999999821186,T1→T2,1457631.0,0.0,2217.5,short
red,O,9,True,R,1,R,True,O,,1462245.5,GE4hogtdLdTFbNasENgtm6SO3hC3,1052.5999999940395,1462002.299999982,1461014.5,prp,,False,50.0,False,False,64.80000001192093,T1→T2,1460949.699999988,1.0,1231.0,short
blue,O,1,True,B,2,B,True,O,,1465244.0,GE4hogtdLdTFbNasENgtm6SO3hC3,1634.9000000059605,1464913.0,1463451.8999999762,prp,,False,150.0,False,False,173.7999999821186,T1→T2,1463278.099999994,2.0,1792.100000023842,short
blue,O,3,True,B,9,B,True,O,,1481814.299999982,GE4hogtdLdTFbNasENgtm6SO3hC3,1728.0999999940395,1481530.599999994,1481015.5,prp,,False,1200.0,False,False,1213.0,T1→T2,1479802.5,9.0,798.7999999821186,long
blue,O,1,True,B,10,B,True,O,,1483886.299999982,GE4hogtdLdTFbNasENgtm6SO3hC3,761.5999999940395,1483607.799999982,1482917.0,prp,,False,50.0,False,False,70.80000001192093,T1→T2,1482846.199999988,10.0,969.2999999821186,short
blue,O,9,True,B,11,B,True,O,,1485834.199999988,GE4hogtdLdTFbNasENgtm6SO3hC3,659.4000000059605,1485571.799999982,1484984.099999994,prp,,False,50.0,False,False,71.7000000178814,T1→T2,1484912.3999999762,11.0,850.0999999940395,short
blue,O,3,True,B,12,B,True,O,,1487799.8999999762,GE4hogtdLdTFbNasENgtm6SO3hC3,690.2999999821186,1487550.3999999762,1487035.3999999762,prp,,False,150.0,False,False,175.2999999821186,T1→T2,1486860.099999994,12.0,764.5,short
blue,E,4,True,B,13,B,True,E,,1489714.8999999762,GE4hogtdLdTFbNasENgtm6SO3hC3,663.5,1489485.3999999762,1488899.599999994,prp,,False,50.0,False,False,77.7000000178814,T1→T2,1488821.8999999762,13.0,815.2999999821186,short
red,O,5,True,R,14,R,True,O,,1492858.5,GE4hogtdLdTFbNasENgtm6SO3hC3,1058.0,1491795.299999982,1491967.0,prp,,False,1200.0,False,False,1229.7000000178814,T1→T2,1490737.299999982,14.0,891.5,long
red,E,8,True,R,15,R,True,E,,1495357.299999982,GE4hogtdLdTFbNasENgtm6SO3hC3,1141.0,1495036.199999988,1494068.799999982,prp,,False,150.0,False,False,173.59999999403954,T1→T2,1493895.199999988,15.0,1288.5,short
blue,O,7,True,B,17,B,True,O,,1500537.299999982,GE4hogtdLdTFbNasENgtm6SO3hC3,1683.0,1500189.299999982,1499722.299999982,prp,,False,1200.0,False,False,1216.0,T1→T2,1498506.299999982,17.0,815.0,long
red,E,4,True,R,20,R,True,E,,1507230.599999994,GE4hogtdLdTFbNasENgtm6SO3hC3,716.7000000178814,1506966.099999994,1506315.199999988,prp,,False,50.0,False,False,65.80000001192093,T1→T2,1506249.3999999762,20.0,915.4000000059604,short
red,E,2,True,R,22,R,True,E,,1511354.799999982,GE4hogtdLdTFbNasENgtm6SO3hC3,641.4000000059605,1511173.299999982,1510716.799999982,prp,,False,150.0,False,False,184.9000000059605,T1→T2,1510531.8999999762,22.0,638.0,short
blue,O,9,True,B,24,B,True,O,,1515556.5,GE4hogtdLdTFbNasENgtm6SO3hC3,685.9000000059605,1515315.699999988,1514702.8999999762,prp,,False,50.0,False,False,73.09999999403954,T1→T2,1514629.799999982,24.0,853.6000000238419,short
blue,E,4,True,B,25,B,True,E,,1517470.0,GE4hogtdLdTFbNasENgtm6SO3hC3,764.3999999761581,1517358.8999999762,1516768.8999999762,prp,,False,150.0,False,False,174.39999997615814,T1→T2,1516594.5,25.0,701.1000000238419,short
red,E,4,True,R,26,R,True,E,,1519468.3999999762,GE4hogtdLdTFbNasENgtm6SO3hC3,895.6999999880791,1519387.699999988,1518570.299999982,prp,,False,50.0,False,False,78.2999999821186,T1→T2,1518492.0,26.0,898.0999999940395,short
red,O,1,True,R,27,R,True,O,,1522236.699999988,GE4hogtdLdTFbNasENgtm6SO3hC3,1620.2999999821186,1522120.8999999762,1521708.8999999762,prp,,False,1200.0,False,False,1208.2999999821186,T1→T2,1520500.599999994,27.0,527.8000000119209,long
blue,E,6,True,B,29,B,True,E,,1527152.799999982,GE4hogtdLdTFbNasENgtm6SO3hC3,1727.199999988079,1527048.199999988,1526537.699999988,prp,,False,1200.0,False,False,1216.699999988079,T1→T2,1525321.0,29.0,615.0999999940395,long
blue,O,1,True,B,30,B,True,O,,1540036.3999999762,GE4hogtdLdTFbNasENgtm6SO3hC3,1649.300000011921,1539836.199999988,1539397.599999994,prp,,False,1200.0,False,False,1210.7000000178814,T1→T2,1538186.8999999762,30.0,638.7999999821186,long
red,O,1,True,R,31,R,True,O,,1542405.3999999762,GE4hogtdLdTFbNasENgtm6SO3hC3,1087.4000000059605,1542156.0,1541249.699999988,prp,,False,150.0,False,False,181.0999999940396,T1→T2,1541068.599999994,31.0,1155.699999988079,short
blue,O,1,True,B,33,B,True,O,,1546809.0,GE4hogtdLdTFbNasENgtm6SO3hC3,1020.6999999880792,1546672.199999988,1545720.199999988,prp,,False,50.0,False,False,68.69999998807907,T1→T2,1545651.5,33.0,1088.800000011921,short
red,E,2,True,R,34,R,True,E,,1548890.599999994,GE4hogtdLdTFbNasENgtm6SO3hC3,924.7000000178814,1548768.599999994,1547920.099999994,prp,,False,50.0,False,False,76.2000000178814,T1→T2,1547843.8999999762,34.0,970.5,short
red,O,5,True,R,37,R,True,O,,1555537.199999988,GE4hogtdLdTFbNasENgtm6SO3hC3,779.5,1555405.5,1554803.3999999762,prp,,False,150.0,False,False,177.39999997615814,T1→T2,1554626.0,37.0,733.8000000119209,short
red,E,8,True,R,38,R,True,E,,1558209.799999982,GE4hogtdLdTFbNasENgtm6SO3hC3,742.2999999821186,1557312.799999982,1557783.699999988,prp,,False,1200.0,False,False,1213.199999988079,T1→T2,1556570.5,38.0,426.09999999403954,long
blue,E,2,True,B,39,B,True,E,,1560437.799999982,GE4hogtdLdTFbNasENgtm6SO3hC3,981.1999999880792,1560219.799999982,1559415.299999982,prp,,False,150.0,False,False,176.69999998807907,T1→T2,1559238.599999994,39.0,1022.5,short
red,E,2,True,R,40,R,True,E,,1562551.8999999762,GE4hogtdLdTFbNasENgtm6SO3hC3,980.9000000059604,1562443.199999988,1561638.0,prp,,False,150.0,False,False,175.7000000178814,T1→T2,1561462.299999982,40.0,913.899999976158,short
red,E,6,True,R,43,R,True,E,,1569955.0,GE4hogtdLdTFbNasENgtm6SO3hC3,1662.0999999940395,1569840.299999982,1568353.099999994,prp,,False,150.0,False,False,174.90000000596046,T1→T2,1568178.199999988,43.0,1601.9000000059605,short
blue,E,6,True,B,44,B,True,E,,1571890.5,GE4hogtdLdTFbNasENgtm6SO3hC3,779.5,1571744.8999999762,1571137.199999988,prp,,False,150.0,False,False,171.80000001192093,T1→T2,1570965.3999999762,44.0,753.3000000119209,short
blue,E,4,True,B,45,B,True,E,,1573906.599999994,GE4hogtdLdTFbNasENgtm6SO3hC3,844.5999999940395,1573757.3999999762,1573086.5,prp,,False,150.0,False,False,173.7000000178814,T1→T2,1572912.799999982,45.0,820.0999999940395,short
red,O,1,True,R,46,R,True,O,,1575906.799999982,GE4hogtdLdTFbNasENgtm6SO3hC3,812.1000000238419,1575752.5,1575022.299999982,prp,,False,50.0,False,False,81.90000000596046,T1→T2,1574940.3999999762,46.0,884.5,short
red,E,4,True,R,47,R,True,E,,1578103.0,GE4hogtdLdTFbNasENgtm6SO3hC3,992.2000000178814,1577932.5,1577118.199999988,prp,,False,150.0,False,False,177.90000000596046,T1→T2,1576940.299999982,47.0,984.8000000119208,short
blue,E,8,True,B,49,B,True,E,,1584035.599999994,GE4hogtdLdTFbNasENgtm6SO3hC3,1610.5,1583809.199999988,1583415.0,prp,,False,1200.0,False,False,1216.300000011921,T1→T2,1582198.699999988,49.0,620.5999999940395,long
blue,E,6,True,B,51,B,True,E,,1589228.099999994,GE4hogtdLdTFbNasENgtm6SO3hC3,1096.5999999940395,1588549.299999982,1588667.3999999762,prp,,False,1200.0,False,False,1214.699999988079,T1→T2,1587452.699999988,51.0,560.7000000178814,long
red,O,7,True,R,56,R,True,O,,1600775.699999988,GE4hogtdLdTFbNasENgtm6SO3hC3,1693.9000000059605,1600562.199999988,1600079.599999994,prp,,False,1200.0,False,False,1211.300000011921,T1→T2,1598868.299999982,56.0,696.0999999940395,long
blue,E,4,True,B,59,B,True,E,,1608591.299999982,GE4hogtdLdTFbNasENgtm6SO3hC3,1606.9000000059605,1608443.599999994,1608050.699999988,prp,,False,1200.0,False,False,1214.0,T1→T2,1606836.699999988,59.0,540.5999999940395,long
red,E,6,True,R,60,R,True,E,,1620772.599999994,GE4hogtdLdTFbNasENgtm6SO3hC3,1054.800000011921,1620670.699999988,1619689.599999994,prp,,False,50.0,False,False,73.7000000178814,T1→T2,1619615.8999999762,60.0,1083.0,short
blue,E,4,True,B,65,B,True,E,,1631106.099999994,GE4hogtdLdTFbNasENgtm6SO3hC3,583.0,1630972.599999994,1630468.699999988,prp,,False,50.0,False,False,79.09999999403954,T1→T2,1630389.599999994,65.0,637.4000000059605,short
blue,O,9,True,B,66,B,True,O,,1633988.799999982,GE4hogtdLdTFbNasENgtm6SO3hC3,1689.5,1633822.099999994,1633365.699999988,prp,,False,1200.0,False,False,1233.0999999940395,T1→T2,1632132.599999994,66.0,623.0999999940395,long
red,E,6,True,R,67,R,True,E,,1637088.199999988,GE4hogtdLdTFbNasENgtm6SO3hC3,1936.7999999821184,1636952.299999982,1636232.699999988,prp,,False,1200.0,False,False,1217.199999988079,T1→T2,1635015.5,67.0,855.5,long
red,O,3,True,R,70,R,True,O,,1644191.8999999762,GE4hogtdLdTFbNasENgtm6SO3hC3,1780.800000011921,1644049.199999988,1642434.3999999762,prp,,False,150.0,False,False,166.0,T1→T2,1642268.3999999762,70.0,1757.5,short
blue,O,1,True,B,71,B,True,O,,1647221.199999988,GE4hogtdLdTFbNasENgtm6SO3hC3,1657.399999976158,1646872.8999999762,1646432.0,prp,,False,1200.0,False,False,1216.5,T1→T2,1645215.5,71.0,789.1999999880791,long
red,O,7,True,R,76,R,True,O,,1658071.799999982,GE4hogtdLdTFbNasENgtm6SO3hC3,960.6999999880792,1657908.299999982,1657020.299999982,prp,,False,50.0,False,False,72.69999998807907,T1→T2,1656947.599999994,76.0,1051.5,short
red,O,7,True,R,78,R,True,O,,1662855.799999982,GE4hogtdLdTFbNasENgtm6SO3hC3,759.7000000178814,1662738.599999994,1662152.099999994,prp,,False,150.0,False,False,173.2000000178814,T1→T2,1661978.8999999762,78.0,703.6999999880791,short
red,O,7,True,R,79,R,True,O,,1665021.799999982,GE4hogtdLdTFbNasENgtm6SO3hC3,1003.7999999821186,1664897.8999999762,1664069.0,prp,,False,150.0,False,False,174.90000000596046,T1→T2,1663894.099999994,79.0,952.7999999821186,short
red,O,7,True,R,80,R,True,O,,1667818.3999999762,GE4hogtdLdTFbNasENgtm6SO3hC3,1644.5,1667694.5,1667258.8999999762,prp,,False,1200.0,False,False,1208.899999976158,T1→T2,1666050.0,80.0,559.5,long
red,O,1,True,R,81,R,True,O,,1669721.599999994,GE4hogtdLdTFbNasENgtm6SO3hC3,741.9000000059605,1669589.299999982,1668919.599999994,prp,,False,50.0,False,False,72.2000000178814,T1→T2,1668847.3999999762,81.0,802.0,short
blue,E,2,True,B,82,B,True,E,,1672356.099999994,GE4hogtdLdTFbNasENgtm6SO3hC3,1490.699999988079,1672243.3999999762,1670816.8999999762,prp,,False,50.0,False,False,64.19999998807907,T1→T2,1670752.699999988,82.0,1539.2000000178814,short
red,O,3,True,R,83,R,True,O,,1674744.199999988,GE4hogtdLdTFbNasENgtm6SO3hC3,1242.0,1674625.5,1673456.199999988,prp,,False,50.0,False,False,72.69999998807907,T1→T2,1673383.5,83.0,1288.0,short
red,E,4,True,R,84,R,True,E,,1677502.5,GE4hogtdLdTFbNasENgtm6SO3hC3,1601.5,1677361.8999999762,1676974.699999988,prp,,False,1200.0,False,False,1214.300000011921,T1→T2,1675760.3999999762,84.0,527.8000000119209,long
red,E,2,True,R,85,R,True,E,,1680305.099999994,GE4hogtdLdTFbNasENgtm6SO3hC3,1607.5999999940395,1680142.799999982,1679746.0,prp,,False,1200.0,False,False,1210.800000011921,T1→T2,1678535.199999988,85.0,559.0999999940395,long
blue,O,7,True,B,87,B,True,O,,1685608.199999988,GE4hogtdLdTFbNasENgtm6SO3hC3,1829.5999999940395,1685468.8999999762,1683704.599999994,prp,,False,50.0,False,False,65.30000001192093,T1→T2,1683639.299999982,87.0,1903.5999999940395,short
blue,O,1,True,B,88,B,True,O,,1688459.3999999762,GE4hogtdLdTFbNasENgtm6SO3hC3,1667.2999999821186,1688312.3999999762,1687859.199999988,prp,,False,1200.0,False,False,1214.0999999940395,T1→T2,1686645.099999994,88.0,600.1999999880791,long
blue,E,2,True,B,89,B,True,E,,1692176.5,GE4hogtdLdTFbNasENgtm6SO3hC3,2555.7999999821186,1692042.8999999762,1689552.599999994,prp,,False,50.0,False,False,65.5,T1→T2,1689487.099999994,89.0,2623.9000000059605,short
blue,E,8,True,B,90,B,True,E,,1704325.3999999762,GE4hogtdLdTFbNasENgtm6SO3hC3,1015.9000000059604,1704228.599999994,1703406.3999999762,prp,,False,150.0,False,False,193.69999998807907,T1→T2,1703212.699999988,90.0,919.0,short
blue,E,2,True,B,91,B,True,E,,1707091.699999988,GE4hogtdLdTFbNasENgtm6SO3hC3,1591.5,1706957.799999982,1706580.0,prp,,False,1200.0,False,False,1213.7000000178814,T1→T2,1705366.299999982,91.0,511.6999999880791,long
blue,E,2,True,B,92,B,True,E,,1708919.599999994,GE4hogtdLdTFbNasENgtm6SO3hC3,693.7000000178814,1708817.5,1708200.3999999762,prp,,False,50.0,False,False,76.59999999403954,T1→T2,1708123.799999982,92.0,719.2000000178814,short
red,E,8,True,R,98,R,True,E,,1722390.0,GE4hogtdLdTFbNasENgtm6SO3hC3,1625.199999988079,1722291.3999999762,1721887.199999988,prp,,False,1200.0,False,False,1221.0,T1→T2,1720666.199999988,98.0,502.8000000119209,long
blue,E,6,True,B,99,B,True,E,,1724406.8999999762,GE4hogtdLdTFbNasENgtm6SO3hC3,859.2999999821186,1724272.3999999762,1723489.199999988,prp,,False,50.0,False,False,76.09999999403954,T1→T2,1723413.099999994,99.0,917.6999999880792,short
blue,O,9,True,B,100,B,True,O,,1726685.099999994,GE4hogtdLdTFbNasENgtm6SO3hC3,912.0,1726349.099999994,1725618.8999999762,prp,,False,150.0,False,False,181.7999999821186,T1→T2,1725437.099999994,100.0,1066.2000000178814,short
red,O,9,True,R,101,R,True,O,,1728902.099999994,GE4hogtdLdTFbNasENgtm6SO3hC3,1075.9000000059605,1728785.199999988,1727885.599999994,prp,,False,150.0,False,False,176.30000001192093,T1→T2,1727709.299999982,101.0,1016.5,short
red,E,4,True,R,104,R,True,E,,1735453.699999988,GE4hogtdLdTFbNasENgtm6SO3hC3,1066.2999999821186,1735331.8999999762,1734341.799999982,prp,,False,50.0,False,False,76.19999998807907,T1→T2,1734265.599999994,104.0,1111.9000000059605,short
red,O,7,True,R,106,R,True,O,,1740353.599999994,GE4hogtdLdTFbNasENgtm6SO3hC3,1795.9000000059605,1740196.799999982,1739619.799999982,prp,,False,1200.0,False,False,1218.9000000059605,T1→T2,1738400.8999999762,106.0,733.8000000119209,long
red,O,3,True,R,107,R,True,O,,1742491.0,GE4hogtdLdTFbNasENgtm6SO3hC3,961.7999999821186,1742339.3999999762,1741455.8999999762,prp,,False,50.0,False,False,78.2999999821186,T1→T2,1741377.599999994,107.0,1035.100000023842,short
blue,E,8,True,B,108,B,True,E,,1745392.0,GE4hogtdLdTFbNasENgtm6SO3hC3,1742.0,1745255.5,1743687.599999994,prp,,False,150.0,False,False,174.09999999403954,T1→T2,1743513.5,108.0,1704.4000000059605,short
red,E,2,True,R,110,R,True,E,,1749236.599999994,GE4hogtdLdTFbNasENgtm6SO3hC3,753.5999999940395,1749145.099999994,1748568.299999982,prp,,False,150.0,False,False,176.7999999821186,T1→T2,1748391.5,110.0,668.3000000119209,short
red,E,4,True,R,114,R,True,E,,1759171.0,GE4hogtdLdTFbNasENgtm6SO3hC3,1602.100000023842,1759060.5,1758673.799999982,prp,,False,1200.0,False,False,1215.4000000059605,T1→T2,1757458.3999999762,114.0,497.2000000178814,long
blue,O,1,True,B,115,B,True,O,,1761505.0,GE4hogtdLdTFbNasENgtm6SO3hC3,1193.5999999940395,1761388.299999982,1760370.3999999762,prp,,False,150.0,False,False,175.69999998807907,T1→T2,1760194.699999988,115.0,1134.600000023842,short
red,O,5,True,R,117,R,True,O,,1766677.3999999762,GE4hogtdLdTFbNasENgtm6SO3hC3,1663.5,1766543.299999982,1766091.799999982,prp,,False,1200.0,False,False,1212.0,T1→T2,1764879.799999982,117.0,585.5999999940395,long
blue,E,4,True,B,118,B,True,E,,1769577.0,GE4hogtdLdTFbNasENgtm6SO3hC3,1727.9000000059605,1769440.099999994,1768924.299999982,prp,,False,1200.0,False,False,1212.0999999940395,T1→T2,1767712.199999988,118.0,652.7000000178814,long
blue,O,9,True,B,119,B,True,O,,1772334.699999988,GE4hogtdLdTFbNasENgtm6SO3hC3,1038.0999999940395,1771638.799999982,1770770.799999982,prp,,False,150.0,False,False,170.09999999403954,T1→T2,1770600.699999988,119.0,1563.9000000059605,short
blue,E,4,True,B,0,B,True,E,,504940.5999999941,Qv0jhW3sqicqQvd7LfReAsI7nD73,1490.0,504933.400000006,503622.3000000119,prp,,False,150.0,False,False,178.90000000596046,T1→T2,503443.400000006,0.0,1318.2999999821186,short
blue,O,5,True,B,1,B,True,O,,507884.0999999941,Qv0jhW3sqicqQvd7LfReAsI7nD73,1902.0,507872.900000006,507185.2000000179,prp,,False,1200.0,False,False,1214.300000011921,T1→T2,505970.900000006,1.0,698.8999999761581,long
blue,O,1,True,B,2,B,True,O,,510100.7000000179,Qv0jhW3sqicqQvd7LfReAsI7nD73,1171.2000000178814,510084.7000000179,509093.7000000179,prp,,False,150.0,False,False,180.2000000178814,T1→T2,508913.5,2.0,1007.0,short
red,E,8,True,R,3,R,True,E,,512133.0999999941,Qv0jhW3sqicqQvd7LfReAsI7nD73,1029.2000000178814,512152.2000000179,511205.3000000119,prp,,True,50.0,False,False,82.30000001192093,T2→T1,511123.0,3.0,927.7999999821186,short
red,O,1,True,R,5,R,True,O,,516616.900000006,Qv0jhW3sqicqQvd7LfReAsI7nD73,1034.5,516623.7000000179,515773.5,prp,,True,150.0,False,False,184.2999999821186,T2→T1,515589.2000000179,5.0,843.4000000059605,short
blue,E,6,True,B,6,B,True,E,,518713.0,Qv0jhW3sqicqQvd7LfReAsI7nD73,1031.4000000059605,518704.900000006,517843.5999999941,prp,,False,150.0,False,False,170.09999999403954,T1→T2,517673.5,6.0,869.4000000059605,short
blue,E,4,True,B,8,B,True,E,,523699.0999999941,Qv0jhW3sqicqQvd7LfReAsI7nD73,1704.5999999940395,523691.0,523203.2000000179,prp,,False,1200.0,False,False,1216.800000011921,T1→T2,521986.400000006,8.0,495.8999999761581,long
red,E,4,True,R,10,R,True,E,,527878.900000006,Qv0jhW3sqicqQvd7LfReAsI7nD73,1043.0999999940395,527885.5,527019.7000000179,prp,,True,150.0,False,False,177.30000001192093,T2→T1,526842.400000006,10.0,859.1999999880791,short
blue,O,1,True,B,12,B,True,O,,532573.599999994,Qv0jhW3sqicqQvd7LfReAsI7nD73,1308.600000023842,532567.2000000179,531339.3000000119,prp,,False,50.0,False,False,80.7000000178814,T1→T2,531258.599999994,12.0,1234.2999999821186,short
blue,E,8,True,B,15,B,True,E,,539629.8000000119,Qv0jhW3sqicqQvd7LfReAsI7nD73,1755.300000011921,539663.2000000179,539140.2000000179,prp,,True,1200.0,False,False,1232.300000011921,T2→T1,537907.900000006,15.0,489.59999999403954,long
red,E,8,True,R,17,R,True,E,,543718.400000006,Qv0jhW3sqicqQvd7LfReAsI7nD73,897.8000000119209,543741.2000000179,543007.0,prp,,True,150.0,False,False,163.59999999403954,T2→T1,542843.400000006,17.0,711.4000000059605,short
blue,E,6,True,B,18,B,True,E,,546358.7000000179,Qv0jhW3sqicqQvd7LfReAsI7nD73,1608.100000023842,546365.7000000179,545972.900000006,prp,,True,1200.0,False,False,1215.300000011921,T2→T1,544757.599999994,18.0,385.8000000119209,long
red,O,1,True,R,19,R,True,O,,549047.2000000179,Qv0jhW3sqicqQvd7LfReAsI7nD73,1672.7999999821186,549065.099999994,548607.2000000179,prp,,True,1200.0,False,False,1214.9000000059605,T2→T1,547392.3000000119,19.0,440.0,long
blue,O,5,True,B,20,B,True,O,,551717.599999994,Qv0jhW3sqicqQvd7LfReAsI7nD73,1632.600000023842,551727.2000000179,551300.599999994,prp,,True,1200.0,False,False,1206.0,T2→T1,550094.599999994,20.0,417.0,long
blue,O,9,True,B,21,B,True,O,,553818.3000000119,Qv0jhW3sqicqQvd7LfReAsI7nD73,1056.399999976158,553822.599999994,552821.8000000119,prp,,True,50.0,False,False,55.599999994039536,T2→T1,552766.2000000179,21.0,996.5,short
blue,E,6,True,B,23,B,True,E,,557757.900000006,Qv0jhW3sqicqQvd7LfReAsI7nD73,740.5,557750.099999994,557091.099999994,prp,,False,50.0,False,False,81.5,T1→T2,557009.599999994,23.0,666.8000000119209,short
blue,O,7,True,B,24,B,True,O,,560100.099999994,Qv0jhW3sqicqQvd7LfReAsI7nD73,1333.199999988079,560108.0,558939.8000000119,prp,,True,150.0,False,False,165.0,T2→T1,558774.8000000119,24.0,1160.2999999821186,short
red,O,3,True,R,25,R,True,O,,562793.8000000119,Qv0jhW3sqicqQvd7LfReAsI7nD73,1659.0999999940395,562785.5,562337.2000000179,prp,,False,1200.0,False,False,1210.800000011921,T1→T2,561126.400000006,25.0,456.59999999403954,long
blue,O,1,True,B,26,B,True,O,,565011.099999994,Qv0jhW3sqicqQvd7LfReAsI7nD73,1166.7999999821186,564976.5,563871.5,prp,,False,50.0,False,False,61.79999998211861,T1→T2,563809.7000000179,26.0,1139.5999999940395,short
red,E,2,True,R,28,R,True,E,,569901.5,Qv0jhW3sqicqQvd7LfReAsI7nD73,1684.4000000059605,569926.2000000179,569456.2000000179,prp,,True,1200.0,False,False,1214.4000000059605,T2→T1,568241.8000000119,28.0,445.2999999821186,long
red,E,4,True,R,29,R,True,E,,573055.7000000179,Qv0jhW3sqicqQvd7LfReAsI7nD73,2129.4000000059605,573073.0,572156.3000000119,prp,,True,1200.0,False,False,1212.7000000178814,T2→T1,570943.599999994,29.0,899.4000000059605,long
blue,E,4,True,B,30,B,True,E,,585510.2000000179,Qv0jhW3sqicqQvd7LfReAsI7nD73,1437.199999988079,585531.099999994,584175.7000000179,prp,,True,50.0,False,False,81.80000001192093,T2→T1,584093.900000006,30.0,1334.5,short
red,E,6,True,R,31,R,True,E,,588270.8000000119,Qv0jhW3sqicqQvd7LfReAsI7nD73,1717.5,588279.0,587775.400000006,prp,,True,1200.0,False,False,1213.9000000059605,T2→T1,586561.5,31.0,495.40000000596046,long
blue,E,8,True,B,33,B,True,E,,592492.599999994,Qv0jhW3sqicqQvd7LfReAsI7nD73,978.5,592506.099999994,591706.3000000119,prp,,True,150.0,False,False,178.7000000178814,T2→T1,591527.599999994,33.0,786.2999999821186,short
blue,E,8,True,B,34,B,True,E,,594370.7000000179,Qv0jhW3sqicqQvd7LfReAsI7nD73,855.7000000178814,594384.2000000179,593706.400000006,prp,,True,150.0,False,False,177.90000000596046,T2→T1,593528.5,34.0,664.3000000119209,short
red,O,9,True,R,36,R,True,O,,598752.900000006,Qv0jhW3sqicqQvd7LfReAsI7nD73,1217.7999999821186,598745.5,597609.599999994,prp,,False,50.0,False,False,81.89999997615814,T1→T2,597527.7000000179,36.0,1143.300000011921,short
red,E,8,True,R,38,R,True,E,,603044.8000000119,Qv0jhW3sqicqQvd7LfReAsI7nD73,1427.5,603068.3000000119,601709.5,prp,,True,50.0,False,False,68.69999998807907,T2→T1,601640.8000000119,38.0,1335.300000011921,short
red,O,5,True,R,39,R,True,O,,604976.0,Qv0jhW3sqicqQvd7LfReAsI7nD73,868.5,604962.2000000179,604257.7000000179,prp,,False,150.0,False,False,164.0,T1→T2,604093.7000000179,39.0,718.2999999821186,short
red,O,5,True,R,40,R,True,O,,606728.5,Qv0jhW3sqicqQvd7LfReAsI7nD73,726.0,606721.5,606178.3000000119,prp,,False,150.0,False,False,182.80000001192093,T1→T2,605995.5,40.0,550.1999999880791,short
red,O,7,True,R,41,R,True,O,,609378.8000000119,Qv0jhW3sqicqQvd7LfReAsI7nD73,1668.5,609412.599999994,608957.7000000179,prp,,True,1200.0,False,False,1213.600000023842,T2→T1,607744.099999994,41.0,421.09999999403954,long
red,E,4,True,R,43,R,True,E,,613411.099999994,Qv0jhW3sqicqQvd7LfReAsI7nD73,942.4000000059604,613419.0,612657.7000000179,prp,,True,150.0,False,False,181.10000002384183,T2→T1,612476.599999994,43.0,753.3999999761581,short
red,E,8,True,R,45,R,True,E,,617683.599999994,Qv0jhW3sqicqQvd7LfReAsI7nD73,1035.899999976158,617698.599999994,616846.3000000119,prp,,True,150.0,False,False,183.5999999940396,T2→T1,616662.7000000179,45.0,837.2999999821186,short
blue,E,8,True,B,46,B,True,E,,619594.7000000179,Qv0jhW3sqicqQvd7LfReAsI7nD73,855.3000000119209,619585.2000000179,618808.900000006,prp,,False,50.0,False,False,79.0,T1→T2,618729.900000006,46.0,785.8000000119209,short
blue,E,6,True,B,47,B,True,E,,621662.900000006,Qv0jhW3sqicqQvd7LfReAsI7nD73,1057.0,621669.5,620792.3000000119,prp,,True,150.0,False,False,179.80000001192093,T2→T1,620612.5,47.0,870.5999999940395,short
red,O,5,True,R,49,R,True,O,,626294.0,Qv0jhW3sqicqQvd7LfReAsI7nD73,1420.7999999821186,626300.5,624962.5,prp,,True,50.0,False,False,82.7999999821186,T2→T1,624879.7000000179,49.0,1331.5,short
red,E,2,True,R,51,R,True,E,,630373.8000000119,Qv0jhW3sqicqQvd7LfReAsI7nD73,859.6000000238419,630371.2000000179,629576.8000000119,prp,,False,50.0,False,False,65.2000000178814,T1→T2,629511.599999994,51.0,797.0,short
blue,E,4,True,B,52,B,True,E,,633385.900000006,Qv0jhW3sqicqQvd7LfReAsI7nD73,2009.9000000059605,633405.5,632610.2000000179,prp,,True,1200.0,False,False,1214.600000023842,T2→T1,631395.599999994,52.0,775.6999999880791,long
blue,O,5,True,B,54,B,True,O,,637891.8000000119,Qv0jhW3sqicqQvd7LfReAsI7nD73,1402.5,637899.2000000179,636676.900000006,prp,,True,150.0,False,False,180.19999998807907,T2→T1,636496.7000000179,54.0,1214.9000000059605,short
blue,E,6,True,B,57,B,True,E,,645058.099999994,Qv0jhW3sqicqQvd7LfReAsI7nD73,954.0,645082.2000000179,644209.8000000119,prp,,True,50.0,False,False,81.59999999403954,T2→T1,644128.2000000179,57.0,848.2999999821186,short
red,O,1,True,R,58,R,True,O,,647479.900000006,Qv0jhW3sqicqQvd7LfReAsI7nD73,1390.0,647489.599999994,646179.7000000179,prp,,True,50.0,False,False,80.10000002384186,T2→T1,646099.599999994,58.0,1300.199999988079,short
blue,E,2,True,B,61,B,True,E,,664697.900000006,Qv0jhW3sqicqQvd7LfReAsI7nD73,1471.699999988079,664719.400000006,663427.099999994,prp,,True,150.0,False,False,179.39999997615814,T2→T1,663247.7000000179,61.0,1270.800000011921,short
blue,O,3,True,B,64,B,True,O,,670799.5,Qv0jhW3sqicqQvd7LfReAsI7nD73,775.0999999940395,670789.900000006,670094.7000000179,prp,,False,50.0,False,False,79.90000000596046,T1→T2,670014.8000000119,64.0,704.7999999821186,short
red,O,9,True,R,65,R,True,O,,672705.5,Qv0jhW3sqicqQvd7LfReAsI7nD73,885.5999999940395,672698.5,671878.3000000119,prp,,False,50.0,False,False,65.40000000596046,T1→T2,671812.900000006,65.0,827.1999999880791,short
red,E,6,True,R,66,R,True,E,,675422.8000000119,Qv0jhW3sqicqQvd7LfReAsI7nD73,1706.7999999821186,675438.5,674945.5,prp,,True,1200.0,False,False,1213.7999999821186,T2→T1,673731.7000000179,66.0,477.3000000119209,long
blue,O,5,True,B,68,B,True,O,,680200.900000006,Qv0jhW3sqicqQvd7LfReAsI7nD73,1690.5,680207.599999994,679732.400000006,prp,,True,1200.0,False,False,1215.300000011921,T2→T1,678517.099999994,68.0,468.5,long
blue,O,1,True,B,69,B,True,O,,681945.099999994,Qv0jhW3sqicqQvd7LfReAsI7nD73,705.2000000178814,681936.7000000179,681296.0,prp,,False,50.0,False,False,64.5,T1→T2,681231.5,69.0,649.0999999940395,short
red,O,7,True,R,71,R,True,O,,686365.0,Qv0jhW3sqicqQvd7LfReAsI7nD73,1601.5999999940395,686386.3000000119,685996.5,prp,,True,1200.0,False,False,1211.7999999821186,T2→T1,684784.7000000179,71.0,368.5,long
blue,O,1,True,B,74,B,True,O,,692545.0,Qv0jhW3sqicqQvd7LfReAsI7nD73,689.3999999761581,692556.099999994,691945.7000000179,prp,,True,50.0,False,False,79.0,T2→T1,691866.7000000179,74.0,599.2999999821186,short
red,E,4,True,R,75,R,True,E,,694501.5,Qv0jhW3sqicqQvd7LfReAsI7nD73,925.7000000178814,694509.3000000119,693746.599999994,prp,,True,150.0,False,False,163.0,T2→T1,693583.599999994,75.0,754.9000000059605,short
blue,O,9,True,B,77,B,True,O,,699022.599999994,Qv0jhW3sqicqQvd7LfReAsI7nD73,547.8999999761581,697998.599999994,697632.3000000119,prp,,False,150.0,False,False,181.5999999940396,T1→T2,697450.7000000179,77.0,1390.2999999821186,short
red,O,3,True,R,81,R,True,O,,707808.3000000119,Qv0jhW3sqicqQvd7LfReAsI7nD73,1032.5,707801.0,706930.099999994,prp,,False,150.0,False,False,161.59999999403954,T1→T2,706768.5,81.0,878.2000000178814,short
blue,O,3,True,B,83,B,True,O,,712578.3000000119,Qv0jhW3sqicqQvd7LfReAsI7nD73,1682.4000000059605,712584.0,712119.400000006,prp,,True,1200.0,False,False,1217.800000011921,T2→T1,710901.599999994,83.0,458.90000000596046,long
blue,E,4,True,B,85,B,True,E,,716723.5,Qv0jhW3sqicqQvd7LfReAsI7nD73,856.0,716706.8000000119,715933.2000000179,prp,,False,50.0,False,False,82.40000000596046,T1→T2,715850.8000000119,85.0,790.2999999821186,short
red,E,2,True,R,92,R,True,E,,743294.3000000119,Qv0jhW3sqicqQvd7LfReAsI7nD73,1649.0,743331.5,742901.3000000119,prp,,True,1200.0,False,False,1218.800000011921,T2→T1,741682.5,92.0,393.0,long
blue,E,8,True,B,93,B,True,E,,746006.099999994,Qv0jhW3sqicqQvd7LfReAsI7nD73,1648.4000000059605,746000.0,745565.400000006,prp,,False,1200.0,False,False,1213.800000011921,T1→T2,744351.599999994,93.0,440.6999999880791,long
blue,O,9,True,B,95,B,True,O,,750953.5,Qv0jhW3sqicqQvd7LfReAsI7nD73,1774.0999999940395,750926.099999994,750365.599999994,prp,,False,1200.0,False,False,1213.5999999940395,T1→T2,749152.0,95.0,587.9000000059605,long
red,E,6,True,R,96,R,True,E,,752883.599999994,Qv0jhW3sqicqQvd7LfReAsI7nD73,905.5999999940396,752876.5,752150.8000000119,prp,,False,150.0,False,False,179.90000000596046,T1→T2,751970.900000006,96.0,732.7999999821186,short
red,E,8,True,R,99,R,True,E,,759033.5,Qv0jhW3sqicqQvd7LfReAsI7nD73,1166.2999999821186,759054.099999994,757965.900000006,prp,,True,50.0,False,False,78.09999999403954,T2→T1,757887.8000000119,99.0,1067.5999999940395,short
red,O,3,True,R,100,R,True,O,,761809.5,Qv0jhW3sqicqQvd7LfReAsI7nD73,1727.0,761813.3000000119,761306.900000006,prp,,True,1200.0,False,False,1220.5999999940395,T2→T1,760086.3000000119,100.0,502.59999999403954,long
red,O,5,True,R,101,R,True,O,,764547.099999994,Qv0jhW3sqicqQvd7LfReAsI7nD73,1740.800000011921,764574.400000006,764053.3000000119,prp,,True,1200.0,False,False,1219.7000000178814,T2→T1,762833.599999994,101.0,493.7999999821186,long
blue,O,7,True,B,102,B,True,O,,766970.7000000179,Qv0jhW3sqicqQvd7LfReAsI7nD73,1205.4000000059605,766809.0,765783.2000000179,prp,,False,150.0,False,False,179.60000002384186,T1→T2,765603.599999994,102.0,1187.5,short
red,O,7,True,R,103,R,True,O,,768796.5,Qv0jhW3sqicqQvd7LfReAsI7nD73,789.4000000059605,768781.2000000179,768165.900000006,prp,,False,150.0,False,False,174.09999999403954,T1→T2,767991.8000000119,103.0,630.5999999940395,short
red,O,7,True,R,104,R,True,O,,770559.2000000179,Qv0jhW3sqicqQvd7LfReAsI7nD73,729.8000000119209,770551.400000006,770001.0,prp,,False,150.0,False,False,179.40000000596046,T1→T2,769821.599999994,104.0,558.2000000178814,short
blue,E,6,True,B,107,B,True,E,,777966.599999994,Qv0jhW3sqicqQvd7LfReAsI7nD73,1787.2999999821186,777789.099999994,777215.900000006,prp,,False,1200.0,False,False,1214.0999999940395,T1→T2,776001.8000000119,107.0,750.6999999880791,long
blue,O,9,True,B,110,B,True,O,,784272.099999994,Qv0jhW3sqicqQvd7LfReAsI7nD73,633.9000000059605,784091.400000006,783638.5,prp,,False,150.0,False,False,181.0,T1→T2,783457.5,110.0,633.5999999940395,short
blue,O,3,True,B,111,B,True,O,,787138.900000006,Qv0jhW3sqicqQvd7LfReAsI7nD73,1469.7999999821186,786755.5,786500.2000000179,prp,,False,1200.0,False,False,1214.5,T1→T2,785285.7000000179,111.0,638.6999999880791,long
red,O,3,True,R,112,R,True,O,,788862.3000000119,Qv0jhW3sqicqQvd7LfReAsI7nD73,442.59999999403954,788594.599999994,788217.599999994,prp,,False,50.0,False,False,65.59999999403954,T1→T2,788152.0,112.0,644.7000000178814,short
red,O,9,True,R,113,R,True,O,,791064.2000000179,Qv0jhW3sqicqQvd7LfReAsI7nD73,512.6999999880791,790402.5,789971.599999994,prp,,False,50.0,False,False,81.7999999821186,T1→T2,789889.8000000119,113.0,1092.600000023842,short
red,E,8,True,R,115,R,True,E,,795309.599999994,Qv0jhW3sqicqQvd7LfReAsI7nD73,559.5999999940395,795248.400000006,794773.900000006,prp,,False,50.0,False,False,85.09999999403954,T1→T2,794688.8000000119,115.0,535.6999999880791,short
red,E,4,True,R,118,R,True,E,,802110.099999994,Qv0jhW3sqicqQvd7LfReAsI7nD73,1697.4000000059605,802038.2000000179,801553.5,prp,,False,1200.0,False,False,1212.699999988079,T1→T2,800340.8000000119,118.0,556.5999999940395,long
red,E,2,True,R,119,R,True,E,,804001.5,Qv0jhW3sqicqQvd7LfReAsI7nD73,822.0999999940395,803961.900000006,803204.599999994,prp,,False,50.0,False,False,64.7999999821186,T1→T2,803139.8000000119,119.0,796.9000000059605,short
red,E,2,True,R,0,R,True,E,,521709.3000000715,ORvIk1xRWIQmKuLVe6GXNouvAXx2,1014.0,521463.10000002384,520513.8000000715,prp,,False,50.0,False,False,64.70000004768372,T1→T2,520449.10000002384,0.0,1195.5,short
blue,E,6,True,B,1,B,True,E,,523730.8000000715,ORvIk1xRWIQmKuLVe6GXNouvAXx2,708.1000000238419,523435.8000000715,522904.60000002384,prp,,False,150.0,False,False,176.89999997615814,T1→T2,522727.7000000477,1.0,826.2000000476837,short
red,O,9,True,R,2,R,True,O,,526661.3000000715,ORvIk1xRWIQmKuLVe6GXNouvAXx2,661.3999999761581,525425.8000000715,525982.9000000954,prp,,False,1200.0,False,False,1218.5,T1→T2,524764.4000000954,2.0,678.3999999761581,long
blue,E,8,True,B,5,B,True,E,,534366.7000000477,ORvIk1xRWIQmKuLVe6GXNouvAXx2,972.8000000715256,533102.8000000715,533350.2000000477,prp,,False,1200.0,False,False,1220.2000000476835,T1→T2,532130.0,5.0,1016.5,long
red,E,2,True,R,6,R,True,E,,537580.6000000238,ORvIk1xRWIQmKuLVe6GXNouvAXx2,1059.5,536442.2000000477,536602.9000000954,prp,,False,1200.0,False,False,1220.2000000476835,T1→T2,535382.7000000477,6.0,977.6999999284744,long
blue,E,2,True,B,8,B,True,E,,542511.6000000238,ORvIk1xRWIQmKuLVe6GXNouvAXx2,786.7999999523163,542134.6000000238,541523.6000000238,prp,,False,150.0,False,False,175.79999995231628,T1→T2,541347.8000000715,8.0,988.0,short
red,E,4,True,R,9,R,True,E,,544629.1000000238,ORvIk1xRWIQmKuLVe6GXNouvAXx2,843.4000000953674,544377.4000000954,543598.7000000477,prp,,False,50.0,False,False,64.70000004768372,T1→T2,543534.0,9.0,1030.399999976158,short
blue,O,7,True,B,13,B,True,O,,554090.4000000954,ORvIk1xRWIQmKuLVe6GXNouvAXx2,1213.5,553170.4000000954,552022.1000000238,prp,,False,50.0,False,False,65.19999992847443,T1→T2,551956.9000000954,13.0,2068.3000000715256,short
blue,O,1,True,B,15,B,True,O,,559689.2000000477,ORvIk1xRWIQmKuLVe6GXNouvAXx2,851.3000000715256,558679.3000000715,559042.4000000954,prp,,False,1200.0,False,False,1214.4000000953674,T1→T2,557828.0,15.0,646.7999999523163,long
red,O,5,True,R,18,R,True,O,,568747.5,ORvIk1xRWIQmKuLVe6GXNouvAXx2,652.8999999761581,568358.6000000238,567774.8000000715,prp,,False,50.0,False,False,69.10000002384186,T1→T2,567705.7000000477,18.0,972.6999999284744,short
blue,O,3,True,B,19,B,True,O,,571525.6000000238,ORvIk1xRWIQmKuLVe6GXNouvAXx2,1012.5,570784.9000000954,571019.4000000954,prp,,False,1200.0,False,False,1247.0,T1→T2,569772.4000000954,19.0,506.1999999284744,long
blue,E,8,True,B,21,B,True,E,,577058.5,ORvIk1xRWIQmKuLVe6GXNouvAXx2,899.6000000238419,576233.9000000954,576552.4000000954,prp,,False,1200.0,False,False,1218.100000023842,T1→T2,575334.3000000715,21.0,506.09999990463257,long
blue,E,4,True,B,24,B,True,E,,585769.9000000954,ORvIk1xRWIQmKuLVe6GXNouvAXx2,791.6000000238419,584964.8000000715,584239.0,prp,,False,50.0,False,False,65.79999995231628,T1→T2,584173.2000000477,24.0,1530.9000000953674,short
blue,O,1,True,B,25,B,True,O,,588286.4000000954,ORvIk1xRWIQmKuLVe6GXNouvAXx2,876.3000000715256,587671.9000000954,586960.4000000954,prp,,False,150.0,False,False,164.80000007152557,T1→T2,586795.6000000238,25.0,1326.0,short
blue,O,7,True,B,27,B,True,O,,592860.4000000954,ORvIk1xRWIQmKuLVe6GXNouvAXx2,586.0999999046326,592079.0,591676.3000000715,prp,,False,150.0,False,False,183.3999999761581,T1→T2,591492.9000000954,27.0,1184.100000023842,short
blue,E,2,True,B,28,B,True,E,,595565.9000000954,ORvIk1xRWIQmKuLVe6GXNouvAXx2,927.899999976158,594812.1000000238,595091.1000000238,prp,,False,1200.0,False,False,1206.899999976158,T1→T2,593884.2000000477,28.0,474.8000000715256,long
blue,O,3,True,B,30,B,True,O,,609653.3000000715,ORvIk1xRWIQmKuLVe6GXNouvAXx2,657.3999999761581,609348.5,608759.1000000238,prp,,False,50.0,False,False,68.0,T1→T2,608691.1000000238,30.0,894.2000000476837,short
blue,E,4,True,B,31,B,True,E,,612330.1000000238,ORvIk1xRWIQmKuLVe6GXNouvAXx2,536.1000000238419,611219.3000000715,611902.0,prp,,False,1200.0,False,False,1218.7999999523165,T1→T2,610683.2000000477,31.0,428.10000002384186,long
blue,O,9,True,B,36,B,True,O,,624246.7000000477,ORvIk1xRWIQmKuLVe6GXNouvAXx2,828.0,623318.9000000954,623699.4000000954,prp,,False,1200.0,False,False,1208.5,T1→T2,622490.9000000954,36.0,547.2999999523163,long
blue,O,5,True,B,38,B,True,O,,628322.2000000477,ORvIk1xRWIQmKuLVe6GXNouvAXx2,690.9000000953674,628060.9000000954,627546.7000000477,prp,,False,150.0,False,False,176.70000004768372,T1→T2,627370.0,38.0,775.5,short
red,E,2,True,R,43,R,True,E,,640414.5,ORvIk1xRWIQmKuLVe6GXNouvAXx2,580.0,640105.2000000477,639698.0,prp,,False,150.0,False,False,172.79999995231628,T1→T2,639525.2000000477,43.0,716.5,short
red,O,9,True,R,47,R,True,O,,650005.3000000715,ORvIk1xRWIQmKuLVe6GXNouvAXx2,1819.6999999284744,649347.1000000238,647694.5,prp,,False,150.0,False,False,167.09999990463257,T1→T2,647527.4000000954,47.0,2310.8000000715256,short
blue,O,3,True,B,52,B,True,O,,662728.9000000954,ORvIk1xRWIQmKuLVe6GXNouvAXx2,600.1000000238419,661643.2000000477,662264.0,prp,,False,1200.0,False,False,1220.899999976158,T1→T2,661043.1000000238,52.0,464.9000000953674,long
blue,O,3,True,B,54,B,True,O,,667493.2000000477,ORvIk1xRWIQmKuLVe6GXNouvAXx2,488.2999999523163,666318.2000000477,667042.2000000477,prp,,False,1200.0,False,False,1212.2999999523165,T1→T2,665829.9000000954,54.0,451.0,long
blue,O,7,True,B,56,B,True,O,,672242.0,ORvIk1xRWIQmKuLVe6GXNouvAXx2,834.5999999046326,672012.0,671245.9000000954,prp,,False,50.0,False,False,68.5,T1→T2,671177.4000000954,56.0,996.0999999046326,short
red,O,1,True,R,58,R,True,O,,676746.1000000238,ORvIk1xRWIQmKuLVe6GXNouvAXx2,1112.0,676346.2000000477,675300.6000000238,prp,,False,50.0,False,False,66.39999997615814,T1→T2,675234.2000000477,58.0,1445.5,short
blue,O,5,True,B,59,B,True,O,,679315.0,ORvIk1xRWIQmKuLVe6GXNouvAXx2,591.7000000476837,678369.7000000477,678994.9000000954,prp,,False,1200.0,False,False,1216.9000000953674,T1→T2,677778.0,59.0,320.09999990463257,long
red,E,8,True,R,60,R,True,E,,691227.0,ORvIk1xRWIQmKuLVe6GXNouvAXx2,565.8999999761581,690911.5,690518.4000000954,prp,,False,150.0,False,False,172.80000007152557,T1→T2,690345.6000000238,60.0,708.5999999046326,short
blue,O,1,True,B,61,B,True,O,,692912.7000000477,ORvIk1xRWIQmKuLVe6GXNouvAXx2,426.7000000476837,692668.7000000477,692319.2000000477,prp,,False,50.0,False,False,77.20000004768372,T1→T2,692242.0,61.0,593.5,short
red,E,6,True,R,62,R,True,E,,694624.7000000477,ORvIk1xRWIQmKuLVe6GXNouvAXx2,490.5,694438.2000000477,694119.7000000477,prp,,False,150.0,False,False,172.0,T1→T2,693947.7000000477,62.0,505.0,short
red,O,1,True,R,63,R,True,O,,696701.5,ORvIk1xRWIQmKuLVe6GXNouvAXx2,918.100000023842,696556.6000000238,695716.3000000715,prp,,False,50.0,False,False,77.80000007152557,T1→T2,695638.5,63.0,985.1999999284744,short
blue,E,4,True,B,68,B,True,E,,708919.8000000715,ORvIk1xRWIQmKuLVe6GXNouvAXx2,946.2999999523164,708679.5,707805.1000000238,prp,,False,50.0,False,False,71.89999997615814,T1→T2,707733.2000000477,68.0,1114.7000000476835,short
red,O,1,True,R,69,R,True,O,,710939.9000000954,ORvIk1xRWIQmKuLVe6GXNouvAXx2,800.5,710738.4000000954,710121.7000000477,prp,,False,150.0,False,False,183.79999995231628,T1→T2,709937.9000000954,69.0,818.2000000476837,short
blue,O,7,True,B,72,B,True,O,,717296.1000000238,ORvIk1xRWIQmKuLVe6GXNouvAXx2,614.1999999284744,716614.6000000238,716171.3000000715,prp,,False,150.0,False,False,170.89999997615814,T1→T2,716000.4000000954,72.0,1124.7999999523165,short
red,E,8,True,R,73,R,True,E,,720347.5,ORvIk1xRWIQmKuLVe6GXNouvAXx2,1635.2000000476835,719963.9000000954,718505.2000000477,prp,,False,150.0,False,False,176.5,T1→T2,718328.7000000477,73.0,1842.2999999523165,short
red,E,2,True,R,75,R,True,E,,725428.2000000477,ORvIk1xRWIQmKuLVe6GXNouvAXx2,1032.600000023842,725016.2000000477,724157.5,prp,,False,150.0,False,False,173.89999997615814,T1→T2,723983.6000000238,75.0,1270.7000000476835,short
blue,E,6,True,B,76,B,True,E,,727553.9000000954,ORvIk1xRWIQmKuLVe6GXNouvAXx2,900.899999976158,727356.5,726519.0,prp,,False,50.0,False,False,63.39999997615814,T1→T2,726455.6000000238,76.0,1034.9000000953674,short
red,O,9,True,R,77,R,True,O,,730238.7000000477,ORvIk1xRWIQmKuLVe6GXNouvAXx2,637.7000000476837,729220.7000000477,729805.3000000715,prp,,False,1200.0,False,False,1222.3000000715256,T1→T2,728583.0,77.0,433.3999999761581,long
red,E,4,True,R,79,R,True,E,,735583.4000000954,ORvIk1xRWIQmKuLVe6GXNouvAXx2,1363.0,735153.2000000477,733856.5,prp,,False,50.0,False,False,66.29999995231628,T1→T2,733790.2000000477,79.0,1726.9000000953674,short
red,E,8,True,R,81,R,True,E,,741737.4000000954,ORvIk1xRWIQmKuLVe6GXNouvAXx2,601.0,741486.9000000954,741056.9000000954,prp,,False,150.0,False,False,171.0,T1→T2,740885.9000000954,81.0,680.5,short
red,O,9,True,R,82,R,True,O,,744512.0,ORvIk1xRWIQmKuLVe6GXNouvAXx2,695.3999999761581,743463.2000000477,743980.8000000715,prp,,False,1200.0,False,False,1213.0,T1→T2,742767.8000000715,82.0,531.1999999284744,long
red,O,9,True,R,84,R,True,O,,749904.5,ORvIk1xRWIQmKuLVe6GXNouvAXx2,1522.399999976158,749553.1000000238,749245.7000000477,prp,,False,1200.0,False,False,1215.0,T1→T2,748030.7000000477,84.0,658.7999999523163,long
blue,E,4,True,B,85,B,True,E,,752478.5,ORvIk1xRWIQmKuLVe6GXNouvAXx2,620.2999999523163,751558.6000000238,752153.0,prp,,False,1200.0,False,False,1214.6999999284744,T1→T2,750938.3000000715,85.0,325.5,long
red,O,9,True,R,88,R,True,O,,759713.7000000477,ORvIk1xRWIQmKuLVe6GXNouvAXx2,564.0999999046326,759066.0,758576.8000000715,prp,,False,50.0,False,False,74.89999997615814,T1→T2,758501.9000000954,88.0,1136.899999976158,short
blue,E,4,True,B,93,B,True,E,,781446.3000000715,ORvIk1xRWIQmKuLVe6GXNouvAXx2,756.1000000238419,781254.3000000715,780661.7000000477,prp,,False,150.0,False,False,163.5,T1→T2,780498.2000000477,93.0,784.6000000238419,short
red,O,3,True,R,94,R,True,O,,784270.3000000715,ORvIk1xRWIQmKuLVe6GXNouvAXx2,1183.5,783656.1000000238,782538.9000000954,prp,,False,50.0,False,False,66.30000007152557,T1→T2,782472.6000000238,94.0,1731.399999976158,short
red,E,4,True,R,95,R,True,E,,787443.5,ORvIk1xRWIQmKuLVe6GXNouvAXx2,740.7999999523163,786032.6000000238,786503.1000000238,prp,,False,1200.0,False,False,1211.2999999523165,T1→T2,785291.8000000715,95.0,940.399999976158,long
blue,E,4,True,B,97,B,True,E,,793285.7000000477,ORvIk1xRWIQmKuLVe6GXNouvAXx2,1045.3000000715256,792860.8000000715,791996.5,prp,,False,150.0,False,False,181.0,T1→T2,791815.5,97.0,1289.2000000476835,short
blue,O,1,True,B,98,B,True,O,,795632.2000000477,ORvIk1xRWIQmKuLVe6GXNouvAXx2,932.600000023842,795247.2000000477,794493.8000000715,prp,,False,150.0,False,False,179.20000004768372,T1→T2,794314.6000000238,98.0,1138.399999976158,short
red,E,6,True,R,100,R,True,E,,800359.7000000477,ORvIk1xRWIQmKuLVe6GXNouvAXx2,531.0,799147.9000000954,799837.2000000477,prp,,False,1200.0,False,False,1220.2999999523165,T1→T2,798616.9000000954,100.0,522.5,long
red,O,7,True,R,101,R,True,O,,802376.0,ORvIk1xRWIQmKuLVe6GXNouvAXx2,743.6000000238419,802126.1000000238,801547.3000000715,prp,,False,150.0,False,False,164.80000007152557,T1→T2,801382.5,101.0,828.6999999284744,short
red,O,7,True,R,102,R,True,O,,804896.1000000238,ORvIk1xRWIQmKuLVe6GXNouvAXx2,438.3999999761581,803834.3000000715,804611.1000000238,prp,,False,1200.0,False,False,1215.1999999284744,T1→T2,803395.9000000954,102.0,285.0,long
red,O,5,True,R,103,R,True,O,,806986.1000000238,ORvIk1xRWIQmKuLVe6GXNouvAXx2,813.3999999761581,806733.1000000238,806095.1000000238,prp,,False,150.0,False,False,175.39999997615814,T1→T2,805919.7000000477,103.0,891.0,short
red,O,9,True,R,104,R,True,O,,808849.7000000477,ORvIk1xRWIQmKuLVe6GXNouvAXx2,624.9000000953674,808642.9000000954,808080.1000000238,prp,,False,50.0,False,False,62.10000002384186,T1→T2,808018.0,104.0,769.6000000238419,short
red,O,3,True,R,108,R,True,O,,820004.1000000238,ORvIk1xRWIQmKuLVe6GXNouvAXx2,667.9000000953674,818896.4000000954,819434.5,prp,,False,1200.0,False,False,1206.0,T1→T2,818228.5,108.0,569.6000000238419,long
blue,E,4,True,B,110,B,True,E,,823920.1000000238,ORvIk1xRWIQmKuLVe6GXNouvAXx2,534.0999999046326,823618.0,823148.8000000715,prp,,False,50.0,False,False,64.89999997615814,T1→T2,823083.9000000954,110.0,771.2999999523163,short
red,E,8,True,R,112,R,True,E,,830074.3000000715,ORvIk1xRWIQmKuLVe6GXNouvAXx2,767.2999999523163,828862.5,829311.0,prp,,False,1200.0,False,False,1215.7999999523165,T1→T2,828095.2000000477,112.0,763.3000000715256,long
blue,O,5,True,B,113,B,True,O,,833025.2000000477,ORvIk1xRWIQmKuLVe6GXNouvAXx2,1417.899999976158,832516.3000000715,831166.0,prp,,False,50.0,False,False,67.59999990463257,T1→T2,831098.4000000954,113.0,1859.200000047684,short
red,E,2,True,R,114,R,True,E,,835920.6000000238,ORvIk1xRWIQmKuLVe6GXNouvAXx2,1239.0,835294.5,834133.3000000715,prp,,False,50.0,False,False,77.80000007152557,T1→T2,834055.5,114.0,1787.2999999523165,short
red,O,1,True,R,115,R,True,O,,837882.0,ORvIk1xRWIQmKuLVe6GXNouvAXx2,617.6000000238419,837567.4000000954,837112.3000000715,prp,,False,150.0,False,False,162.5,T1→T2,836949.8000000715,115.0,769.6999999284744,short
red,E,2,True,R,116,R,True,E,,840041.7000000477,ORvIk1xRWIQmKuLVe6GXNouvAXx2,877.2000000476837,839791.2000000477,838983.9000000954,prp,,False,50.0,False,False,69.90000009536743,T1→T2,838914.0,116.0,1057.7999999523165,short
red,O,9,True,R,118,R,True,O,,845031.9000000954,ORvIk1xRWIQmKuLVe6GXNouvAXx2,702.0,844723.5,844185.0,prp,,False,150.0,False,False,163.5,T1→T2,844021.5,118.0,846.9000000953674,short
blue,E,6,True,B,119,B,True,E,,848952.5,ORvIk1xRWIQmKuLVe6GXNouvAXx2,2249.5,848309.0,846133.9000000954,prp,,False,50.0,False,False,74.40000009536743,T1→T2,846059.5,119.0,2818.599999904633,short
blue,O,1,True,B,0,B,True,O,,1316761.2999999989,80UJMJbCOMgs6YVpsMgXfYTzw6o2,1554.10000000149,1316469.9000000004,1315083.4000000004,prp,,False,150.0,False,False,167.60000000149012,T1→T2,1314915.7999999989,0.0,1677.89999999851,short
blue,E,6,True,B,4,B,True,E,,1327293.2999999989,80UJMJbCOMgs6YVpsMgXfYTzw6o2,1229.5,1327021.0999999996,1325962.0,prp,,False,150.0,False,False,170.40000000037253,T1→T2,1325791.5999999996,4.0,1331.2999999988824,short
red,O,9,True,R,5,R,True,O,,1329409.7999999989,80UJMJbCOMgs6YVpsMgXfYTzw6o2,866.7999999988824,1329182.6999999993,1328492.7999999989,prp,,False,150.0,False,False,176.89999999850988,T1→T2,1328315.9000000004,5.0,917.0,short
blue,O,7,True,B,6,B,True,O,,1331808.2999999989,80UJMJbCOMgs6YVpsMgXfYTzw6o2,1178.2000000011176,1331604.5,1330608.1999999993,prp,,False,150.0,False,False,181.90000000037253,T1→T2,1330426.2999999989,6.0,1200.0999999996277,short
red,O,3,True,R,9,R,True,O,,1340007.4000000004,80UJMJbCOMgs6YVpsMgXfYTzw6o2,1663.5999999996277,1339858.6999999993,1338255.2999999989,prp,,False,50.0,False,False,60.19999999925494,T1→T2,1338195.0999999996,9.0,1752.10000000149,short
red,O,9,True,R,10,R,True,O,,1342471.9000000004,80UJMJbCOMgs6YVpsMgXfYTzw6o2,1243.4000000003723,1342271.6999999993,1341104.5,prp,,False,50.0,False,False,76.20000000111759,T1→T2,1341028.2999999989,10.0,1367.4000000003723,short
red,E,2,True,R,11,R,True,E,,1344661.0,80UJMJbCOMgs6YVpsMgXfYTzw6o2,908.3000000007452,1344402.0999999996,1343672.1999999993,prp,,False,150.0,False,False,178.40000000037253,T1→T2,1343493.7999999989,11.0,988.8000000007452,short
blue,O,7,True,B,14,B,True,O,,1352054.5,80UJMJbCOMgs6YVpsMgXfYTzw6o2,1274.7000000011176,1351665.4000000004,1350451.6999999993,prp,,False,50.0,False,False,61.0,T1→T2,1350390.6999999993,14.0,1602.800000000745,short
blue,O,7,True,B,15,B,True,O,,1354180.9000000004,80UJMJbCOMgs6YVpsMgXfYTzw6o2,866.8000000007451,1353948.0,1353152.1999999993,prp,,False,50.0,False,False,71.0,T1→T2,1353081.1999999993,15.0,1028.7000000011176,short
red,E,4,True,R,17,R,True,E,,1358586.1999999993,80UJMJbCOMgs6YVpsMgXfYTzw6o2,812.5999999996275,1358306.5,1357566.0,prp,,False,50.0,False,False,72.09999999962747,T1→T2,1357493.9000000004,17.0,1020.1999999992548,short
red,O,1,True,R,18,R,True,O,,1361524.4000000004,80UJMJbCOMgs6YVpsMgXfYTzw6o2,757.0999999996275,1360371.0,1360837.5999999996,prp,,False,1200.0,False,False,1223.699999999255,T1→T2,1359613.9000000004,18.0,686.8000000007451,long
blue,O,3,True,B,21,B,True,O,,1368642.5999999996,80UJMJbCOMgs6YVpsMgXfYTzw6o2,1291.7999999988824,1368415.1999999993,1367197.4000000004,prp,,False,50.0,False,False,74.0,T1→T2,1367123.4000000004,21.0,1445.199999999255,short
red,O,7,True,R,22,R,True,O,,1370754.0,80UJMJbCOMgs6YVpsMgXfYTzw6o2,912.5,1370580.0,1369827.9000000004,prp,,False,150.0,False,False,160.40000000037253,T1→T2,1369667.5,22.0,926.0999999996276,short
blue,E,2,True,B,23,B,True,E,,1373628.6999999993,80UJMJbCOMgs6YVpsMgXfYTzw6o2,681.1000000014901,1372448.9000000004,1372979.0999999996,prp,,False,1200.0,False,False,1211.300000000745,T1→T2,1371767.7999999989,23.0,649.5999999996275,long
red,O,7,True,R,25,R,True,O,,1378976.4000000004,80UJMJbCOMgs6YVpsMgXfYTzw6o2,694.2000000011176,1377860.0,1378380.0999999996,prp,,False,1200.0,False,False,1214.300000000745,T1→T2,1377165.7999999989,25.0,596.3000000007451,long
red,E,4,True,R,27,R,True,E,,1384121.6999999993,80UJMJbCOMgs6YVpsMgXfYTzw6o2,833.3000000007451,1383213.5,1383604.9000000004,prp,,False,1200.0,False,False,1224.7000000011176,T1→T2,1382380.1999999993,27.0,516.7999999988824,long
red,E,2,True,R,32,R,True,E,,1405530.6999999993,80UJMJbCOMgs6YVpsMgXfYTzw6o2,483.80000000074506,1404364.0999999996,1405096.2999999989,prp,,False,1200.0,False,False,1216.0,T1→T2,1403880.2999999989,32.0,434.4000000003725,long
blue,E,8,True,B,37,B,True,E,,1415907.5,80UJMJbCOMgs6YVpsMgXfYTzw6o2,665.5,1415641.5,1415047.9000000004,prp,,False,50.0,False,False,71.90000000037253,T1→T2,1414976.0,37.0,859.5999999996275,short
red,O,7,True,R,38,R,True,O,,1418503.0999999996,80UJMJbCOMgs6YVpsMgXfYTzw6o2,815.8999999985099,1417741.7999999989,1418137.0,prp,,False,1200.0,False,False,1211.0999999996277,T1→T2,1416925.9000000004,38.0,366.0999999996274,long
red,E,8,True,R,39,R,True,E,,1420755.0999999996,80UJMJbCOMgs6YVpsMgXfYTzw6o2,878.9000000003725,1420402.5,1419696.0999999996,prp,,False,150.0,False,False,172.5,T1→T2,1419523.5999999996,39.0,1059.0,short
red,O,5,True,R,43,R,True,O,,1429972.1999999993,80UJMJbCOMgs6YVpsMgXfYTzw6o2,710.2999999988824,1429393.1999999993,1428757.9000000004,prp,,False,50.0,False,False,75.0,T1→T2,1428682.9000000004,43.0,1214.2999999988824,short
red,E,8,True,R,44,R,True,E,,1432208.9000000004,80UJMJbCOMgs6YVpsMgXfYTzw6o2,947.0,1431945.0,1431073.6999999993,prp,,False,50.0,False,False,75.69999999925494,T1→T2,1430998.0,44.0,1135.2000000011176,short
blue,O,9,True,B,46,B,True,O,,1436435.2999999989,80UJMJbCOMgs6YVpsMgXfYTzw6o2,535.0,1435756.1999999993,1435391.1999999993,prp,,False,150.0,False,False,170.0,T1→T2,1435221.1999999993,46.0,1044.0999999996277,short
blue,E,4,True,B,48,B,True,E,,1440912.2999999989,80UJMJbCOMgs6YVpsMgXfYTzw6o2,890.7000000011176,1440711.0,1439989.7999999989,prp,,False,150.0,False,False,169.5,T1→T2,1439820.2999999989,48.0,922.5,short
blue,E,8,True,B,50,B,True,E,,1445875.0,80UJMJbCOMgs6YVpsMgXfYTzw6o2,598.9000000003725,1444708.0,1445317.5999999996,prp,,False,1200.0,False,False,1208.5,T1→T2,1444109.0999999996,50.0,557.4000000003725,long
red,O,9,True,R,52,R,True,O,,1450797.2999999989,80UJMJbCOMgs6YVpsMgXfYTzw6o2,898.7999999988824,1450559.2999999989,1449837.0,prp,,False,150.0,False,False,176.5,T1→T2,1449660.5,52.0,960.2999999988824,short
blue,O,9,True,B,53,B,True,O,,1453491.0,80UJMJbCOMgs6YVpsMgXfYTzw6o2,815.0999999996275,1452631.7999999989,1453027.2999999989,prp,,False,1200.0,False,False,1210.5999999996277,T1→T2,1451816.6999999993,53.0,463.7000000011176,long
blue,O,9,True,B,54,B,True,O,,1456215.0999999996,80UJMJbCOMgs6YVpsMgXfYTzw6o2,559.0,1455086.6999999993,1455743.9000000004,prp,,False,1200.0,False,False,1216.2000000011176,T1→T2,1454527.6999999993,54.0,471.1999999992549,long
red,E,8,True,R,55,R,True,E,,1458261.6999999993,80UJMJbCOMgs6YVpsMgXfYTzw6o2,698.0999999996275,1457952.0,1457430.9000000004,prp,,False,150.0,False,False,177.0,T1→T2,1457253.9000000004,55.0,830.7999999988824,short
blue,E,6,True,B,56,B,True,E,,1460290.7999999989,80UJMJbCOMgs6YVpsMgXfYTzw6o2,822.3999999985099,1460110.7999999989,1459447.0999999996,prp,,False,150.0,False,False,158.69999999925494,T1→T2,1459288.4000000004,56.0,843.6999999992549,short
red,E,4,True,R,58,R,True,E,,1464096.9000000004,80UJMJbCOMgs6YVpsMgXfYTzw6o2,649.2999999988824,1463920.2999999989,1463346.0,prp,,False,50.0,False,False,75.0,T1→T2,1463271.0,58.0,750.9000000003725,short
red,O,9,True,R,59,R,True,O,,1465974.9000000004,80UJMJbCOMgs6YVpsMgXfYTzw6o2,492.6999999992549,1465610.7999999989,1465295.1999999993,prp,,False,150.0,False,False,177.09999999962747,T1→T2,1465118.0999999996,59.0,679.7000000011176,short
red,E,2,True,R,61,R,True,E,,1480973.0,80UJMJbCOMgs6YVpsMgXfYTzw6o2,782.3000000007451,1480062.4000000004,1480497.9000000004,prp,,False,1200.0,False,False,1217.800000000745,T1→T2,1479280.0999999996,61.0,475.0999999996274,long
blue,O,7,True,B,62,B,True,O,,1483642.9000000004,80UJMJbCOMgs6YVpsMgXfYTzw6o2,552.6000000014901,1482550.9000000004,1483208.4000000004,prp,,False,1200.0,False,False,1210.10000000149,T1→T2,1481998.2999999989,62.0,434.5,long
blue,E,4,True,B,65,B,True,E,,1490320.0999999996,80UJMJbCOMgs6YVpsMgXfYTzw6o2,1204.5,1490101.2999999989,1489070.9000000004,prp,,False,150.0,False,False,174.10000000149012,T1→T2,1488896.7999999989,65.0,1249.199999999255,short
blue,O,1,True,B,66,B,True,O,,1492641.1999999993,80UJMJbCOMgs6YVpsMgXfYTzw6o2,1144.5999999996277,1492490.1999999993,1491520.0999999996,prp,,False,150.0,False,False,174.5,T1→T2,1491345.5999999996,66.0,1121.0999999996277,short
red,O,3,True,R,67,R,True,O,,1494651.4000000004,80UJMJbCOMgs6YVpsMgXfYTzw6o2,860.5,1494532.2999999989,1493851.6999999993,prp,,False,150.0,False,False,179.90000000037253,T1→T2,1493671.7999999989,67.0,799.7000000011176,short
red,E,4,True,R,69,R,True,E,,1499403.9000000004,80UJMJbCOMgs6YVpsMgXfYTzw6o2,661.4000000003725,1498365.9000000004,1498916.4000000004,prp,,False,1200.0,False,False,1211.9000000003723,T1→T2,1497704.5,69.0,487.5,long
blue,E,8,True,B,71,B,True,E,,1503903.0999999996,80UJMJbCOMgs6YVpsMgXfYTzw6o2,1152.0999999996277,1503756.0999999996,1502682.7999999989,prp,,False,50.0,False,False,78.79999999888241,T1→T2,1502604.0,71.0,1220.300000000745,short
blue,E,2,True,B,73,B,True,E,,1507772.0999999996,80UJMJbCOMgs6YVpsMgXfYTzw6o2,547.6000000014901,1507607.4000000004,1507135.6999999993,prp,,False,50.0,False,False,75.90000000037253,T1→T2,1507059.7999999989,73.0,636.4000000003725,short
red,E,6,True,R,74,R,True,E,,1510012.1999999993,80UJMJbCOMgs6YVpsMgXfYTzw6o2,1084.5,1509872.7999999989,1508864.6999999993,prp,,False,50.0,False,False,76.40000000037253,T1→T2,1508788.2999999989,74.0,1147.5,short
red,O,9,True,R,75,R,True,O,,1512081.0,80UJMJbCOMgs6YVpsMgXfYTzw6o2,894.6000000014901,1511933.4000000004,1511098.2999999989,prp,,False,50.0,False,False,59.5,T1→T2,1511038.7999999989,75.0,982.7000000011176,short
blue,O,5,True,B,76,B,True,O,,1514084.0999999996,80UJMJbCOMgs6YVpsMgXfYTzw6o2,838.3999999985099,1513940.2999999989,1513179.4000000004,prp,,False,50.0,False,False,77.5,T1→T2,1513101.9000000004,76.0,904.6999999992548,short
blue,E,2,True,B,78,B,True,E,,1518329.0,80UJMJbCOMgs6YVpsMgXfYTzw6o2,849.3999999985099,1518167.7999999989,1517395.0,prp,,False,50.0,False,False,76.59999999962747,T1→T2,1517318.4000000004,78.0,934.0,short
blue,E,6,True,B,80,B,True,E,,1524177.1999999993,80UJMJbCOMgs6YVpsMgXfYTzw6o2,1308.800000000745,1523350.4000000004,1523257.1999999993,prp,,False,1200.0,False,False,1215.5999999996277,T1→T2,1522041.5999999996,80.0,920.0,long
blue,O,9,True,B,81,B,True,O,,1526952.6999999993,80UJMJbCOMgs6YVpsMgXfYTzw6o2,629.3999999985099,1525831.7999999989,1526421.9000000004,prp,,False,1200.0,False,False,1219.5,T1→T2,1525202.4000000004,81.0,530.7999999988824,long
red,E,2,True,R,84,R,True,E,,1533159.6999999993,80UJMJbCOMgs6YVpsMgXfYTzw6o2,687.0,1532923.5999999996,1532408.0,prp,,False,150.0,False,False,171.40000000037253,T1→T2,1532236.5999999996,84.0,751.6999999992549,short
red,O,5,True,R,85,R,True,O,,1535891.0999999996,80UJMJbCOMgs6YVpsMgXfYTzw6o2,588.5999999996275,1534765.6999999993,1535398.0999999996,prp,,False,1200.0,False,False,1221.0,T1→T2,1534177.0999999996,85.0,493.0,long
blue,E,4,True,B,86,B,True,E,,1537930.0,80UJMJbCOMgs6YVpsMgXfYTzw6o2,765.1999999992549,1537678.2999999989,1537088.0,prp,,False,150.0,False,False,174.90000000037253,T1→T2,1536913.0999999996,86.0,842.0,short
red,O,7,True,R,88,R,True,O,,1542037.9000000004,80UJMJbCOMgs6YVpsMgXfYTzw6o2,563.5999999996275,1541682.5,1541302.6999999993,prp,,False,150.0,False,False,183.7999999988824,T1→T2,1541118.9000000004,88.0,735.2000000011176,short
red,E,8,True,R,89,R,True,E,,1544218.0,80UJMJbCOMgs6YVpsMgXfYTzw6o2,746.9000000003725,1543805.0,1543218.2999999989,prp,,False,150.0,False,False,160.19999999925494,T1→T2,1543058.0999999996,89.0,999.7000000011176,short
red,O,9,True,R,95,R,True,O,,1567307.7999999989,80UJMJbCOMgs6YVpsMgXfYTzw6o2,596.9000000003725,1566334.5999999996,1566957.0,prp,,False,1200.0,False,False,1219.300000000745,T1→T2,1565737.6999999993,95.0,350.7999999988824,long
blue,O,9,True,B,96,B,True,O,,1569071.4000000004,80UJMJbCOMgs6YVpsMgXfYTzw6o2,367.5,1568714.0999999996,1568509.7999999989,prp,,False,150.0,False,False,163.19999999925494,T1→T2,1568346.5999999996,96.0,561.6000000014901,short
blue,E,6,True,B,97,B,True,E,,1571790.4000000004,80UJMJbCOMgs6YVpsMgXfYTzw6o2,585.5,1570676.5999999996,1571303.6999999993,prp,,False,1200.0,False,False,1212.5999999996277,T1→T2,1570091.0999999996,97.0,486.7000000011176,long
red,E,4,True,R,98,R,True,E,,1573856.2999999989,80UJMJbCOMgs6YVpsMgXfYTzw6o2,695.0,1573517.5999999996,1572993.9000000004,prp,,False,150.0,False,False,171.30000000074506,T1→T2,1572822.5999999996,98.0,862.3999999985099,short
blue,E,8,True,B,100,B,True,E,,1577937.9000000004,80UJMJbCOMgs6YVpsMgXfYTzw6o2,632.0999999996275,1577655.7999999989,1577208.0,prp,,False,150.0,False,False,184.30000000074503,T1→T2,1577023.6999999993,100.0,729.9000000003725,short
blue,O,3,True,B,101,B,True,O,,1579867.6999999993,80UJMJbCOMgs6YVpsMgXfYTzw6o2,665.2000000011176,1579626.4000000004,1579023.9000000004,prp,,False,50.0,False,False,62.70000000111759,T1→T2,1578961.1999999993,101.0,843.7999999988824,short
red,O,3,True,R,103,R,True,O,,1584447.0999999996,80UJMJbCOMgs6YVpsMgXfYTzw6o2,581.5999999996275,1583352.7999999989,1583992.6999999993,prp,,False,1200.0,False,False,1221.5,T1→T2,1582771.1999999993,103.0,454.4000000003725,long
blue,O,3,True,B,105,B,True,O,,1589505.0999999996,80UJMJbCOMgs6YVpsMgXfYTzw6o2,1394.5999999996277,1589158.2999999989,1588971.5,prp,,False,1200.0,False,False,1207.800000000745,T1→T2,1587763.6999999993,105.0,533.5999999996275,long
blue,E,2,True,B,109,B,True,E,,1598259.7999999989,80UJMJbCOMgs6YVpsMgXfYTzw6o2,1056.2999999988824,1598015.7999999989,1597019.1999999993,prp,,False,50.0,False,False,59.69999999925494,T1→T2,1596959.5,109.0,1240.5999999996277,short
blue,E,6,True,B,110,B,True,E,,1600601.4000000004,80UJMJbCOMgs6YVpsMgXfYTzw6o2,1061.2000000011176,1600350.9000000004,1599364.9000000004,prp,,False,50.0,False,False,75.20000000111759,T1→T2,1599289.6999999993,110.0,1236.5,short
red,E,4,True,R,111,R,True,E,,1602618.5999999996,80UJMJbCOMgs6YVpsMgXfYTzw6o2,750.6999999992549,1602376.5999999996,1601699.2999999989,prp,,False,50.0,False,False,73.39999999850988,T1→T2,1601625.9000000004,111.0,919.3000000007452,short
red,E,8,True,R,112,R,True,E,,1605571.0999999996,80UJMJbCOMgs6YVpsMgXfYTzw6o2,806.0999999996275,1604452.0,1604859.1999999993,prp,,False,1200.0,False,False,1213.2999999988824,T1→T2,1603645.9000000004,112.0,711.9000000003725,long
blue,E,8,True,B,113,B,True,E,,1608266.1999999993,80UJMJbCOMgs6YVpsMgXfYTzw6o2,574.8000000007451,1607166.9000000004,1607816.0,prp,,False,1200.0,False,False,1223.9000000003723,T1→T2,1606592.0999999996,113.0,450.1999999992549,long
red,O,9,True,R,114,R,True,O,,1610468.9000000004,80UJMJbCOMgs6YVpsMgXfYTzw6o2,940.0999999996276,1610240.5999999996,1609379.4000000004,prp,,False,50.0,False,False,78.90000000037253,T1→T2,1609300.5,114.0,1089.5,short
red,E,4,True,R,115,R,True,E,,1612468.4000000004,80UJMJbCOMgs6YVpsMgXfYTzw6o2,691.7999999988824,1612193.6999999993,1611578.7999999989,prp,,False,50.0,False,False,76.89999999850988,T1→T2,1611501.9000000004,115.0,889.6000000014901,short
red,E,8,True,R,116,R,True,E,,1615130.9000000004,80UJMJbCOMgs6YVpsMgXfYTzw6o2,639.2000000011176,1614133.4000000004,1614711.1999999993,prp,,False,1200.0,False,False,1217.0,T1→T2,1613494.1999999993,116.0,419.7000000011176,long
red,O,7,True,R,117,R,True,O,,1617013.4000000004,80UJMJbCOMgs6YVpsMgXfYTzw6o2,562.1999999992549,1616741.5999999996,1616261.0,prp,,False,50.0,False,False,81.59999999962747,T1→T2,1616179.4000000004,117.0,752.4000000003725,short
blue,O,1,True,B,119,B,True,O,,1621797.5999999996,80UJMJbCOMgs6YVpsMgXfYTzw6o2,897.4000000003725,1621614.0,1620875.5,prp,,False,150.0,False,False,158.90000000037253,T1→T2,1620716.5999999996,119.0,922.0999999996276,short
blue,O,5,True,B,3,B,True,O,,946445.8,rUuJv5gl7dWVo7UPQWMx4bohxhK2,2459.199999999953,947528.4,945143.0,prp,,True,50.0,False,False,73.79999999981374,T2→T1,945069.2,3.0,1302.8000000000466,short
blue,O,5,True,B,6,B,True,O,,959034.0,rUuJv5gl7dWVo7UPQWMx4bohxhK2,2146.0,958575.9,957643.7,prp,,False,1200.0,False,False,1213.8000000000466,T1→T2,956429.9,6.0,1390.2999999998135,long
blue,E,2,True,B,14,B,True,E,,989923.2,rUuJv5gl7dWVo7UPQWMx4bohxhK2,1657.6000000000931,989795.9,988309.5,prp,,False,150.0,False,False,171.19999999995343,T1→T2,988138.3,14.0,1613.7000000001865,short
red,O,3,True,R,15,R,True,O,,992872.3,rUuJv5gl7dWVo7UPQWMx4bohxhK2,1461.5,992419.3,991027.6,prp,,False,50.0,False,False,69.80000000004657,T1→T2,990957.8,15.0,1844.6999999999528,short
blue,E,8,True,B,18,B,True,E,,1005144.7,rUuJv5gl7dWVo7UPQWMx4bohxhK2,2025.3000000000463,1004802.3,1003994.4,prp,,False,1200.0,False,False,1217.4000000001397,T1→T2,1002777.0,18.0,1150.3000000000466,long
blue,O,5,True,B,20,B,True,O,,1013085.5,rUuJv5gl7dWVo7UPQWMx4bohxhK2,1581.3999999999069,1012294.1,1010782.5,prp,,False,50.0,False,False,69.79999999981374,T1→T2,1010712.7,20.0,2303.0,short
red,O,7,True,R,25,R,True,O,,1031333.3,rUuJv5gl7dWVo7UPQWMx4bohxhK2,1285.3999999999069,1030468.0,1030402.2,prp,,False,1200.0,False,False,1219.6000000000931,T1→T2,1029182.6,25.0,931.0999999998604,long
blue,E,6,True,B,26,B,True,E,,1034847.3,rUuJv5gl7dWVo7UPQWMx4bohxhK2,1425.8000000000466,1033775.2,1033564.8,prp,,False,1200.0,False,False,1215.3999999999069,T1→T2,1032349.4,26.0,1282.5,long
red,E,8,True,R,28,R,True,E,,1042879.0,rUuJv5gl7dWVo7UPQWMx4bohxhK2,1973.100000000093,1042472.1,1040569.1,prp,,False,50.0,False,False,70.10000000009313,T1→T2,1040499.0,28.0,2309.899999999907,short
red,E,4,True,R,30,R,True,E,,1060502.5,rUuJv5gl7dWVo7UPQWMx4bohxhK2,1348.1000000000931,1059470.7000000002,1058280.0,prp,,False,150.0,False,False,157.39999999990687,T1→T2,1058122.6,30.0,2222.5,short
red,O,7,True,R,31,R,True,O,,1063654.6,rUuJv5gl7dWVo7UPQWMx4bohxhK2,1580.3000000000466,1063106.3,1061704.2000000002,prp,,False,150.0,False,False,178.20000000018626,T1→T2,1061526.0,31.0,1950.3999999999069,short
red,O,1,True,R,34,R,True,O,,1075533.0,rUuJv5gl7dWVo7UPQWMx4bohxhK2,1236.1999999999534,1074617.0,1073441.5,prp,,False,50.0,False,False,60.69999999995344,T1→T2,1073380.8,34.0,2091.5,short
red,O,3,True,R,35,R,True,O,,1078524.8,rUuJv5gl7dWVo7UPQWMx4bohxhK2,872.5,1077431.3,1077765.0,prp,,False,1200.0,False,False,1206.1999999999534,T1→T2,1076558.8,35.0,759.8000000000466,long
red,E,2,True,R,37,R,True,E,,1085710.1,rUuJv5gl7dWVo7UPQWMx4bohxhK2,1775.3000000000466,1085060.8,1083461.1,prp,,False,150.0,False,False,175.60000000009313,T1→T2,1083285.5,37.0,2249.0,short
red,E,2,True,R,39,R,True,E,,1092336.9,rUuJv5gl7dWVo7UPQWMx4bohxhK2,887.3000000000466,1091092.4,1091410.4,prp,,False,1200.0,False,False,1205.3000000000466,T1→T2,1090205.1,39.0,926.5,long
red,O,1,True,R,40,R,True,O,,1096334.4,rUuJv5gl7dWVo7UPQWMx4bohxhK2,2249.8000000000466,1095619.7000000002,1093443.1,prp,,False,50.0,False,False,73.19999999995343,T1→T2,1093369.9,40.0,2891.3000000000466,short
red,E,8,True,R,43,R,True,E,,1105745.6,rUuJv5gl7dWVo7UPQWMx4bohxhK2,1465.8000000000466,1105076.3,1103783.8,prp,,False,150.0,False,False,173.30000000004657,T1→T2,1103610.5,43.0,1961.8000000000463,short
red,O,5,True,R,44,R,True,O,,1108762.0,rUuJv5gl7dWVo7UPQWMx4bohxhK2,1387.5,1108142.8,1106826.6,prp,,False,50.0,False,False,71.30000000004657,T1→T2,1106755.3,44.0,1935.3999999999069,short
red,O,7,True,R,45,R,True,O,,1112776.1,rUuJv5gl7dWVo7UPQWMx4bohxhK2,2271.5,1112059.9,1110995.8,prp,,False,1200.0,False,False,1207.3999999999069,T1→T2,1109788.4,45.0,1780.3000000000466,long
blue,E,8,True,B,46,B,True,E,,1116576.4,rUuJv5gl7dWVo7UPQWMx4bohxhK2,1873.0,1115665.6,1113968.9,prp,,False,150.0,False,False,176.30000000004657,T1→T2,1113792.6,46.0,2607.5,short
blue,E,4,True,B,49,B,True,E,,1126556.6,rUuJv5gl7dWVo7UPQWMx4bohxhK2,1441.1000000000931,1127191.1,1125816.1,prp,,True,50.0,False,False,66.10000000009313,T2→T1,1125750.0,49.0,740.5,short
blue,O,7,True,B,51,B,True,O,,1133842.8,rUuJv5gl7dWVo7UPQWMx4bohxhK2,989.8000000000466,1133288.9,1132369.2000000002,prp,,False,50.0,False,False,70.10000000009313,T1→T2,1132299.1,51.0,1473.5999999998603,short
red,E,4,True,R,52,R,True,E,,1136915.5,rUuJv5gl7dWVo7UPQWMx4bohxhK2,1573.3999999999069,1136442.1,1135040.4,prp,,False,150.0,False,False,171.69999999995343,T1→T2,1134868.7000000002,52.0,1875.0999999998603,short
red,O,7,True,R,55,R,True,O,,1145328.9,rUuJv5gl7dWVo7UPQWMx4bohxhK2,893.0999999998603,1144941.5,1144229.3,prp,,False,150.0,False,False,180.89999999990687,T1→T2,1144048.4,55.0,1099.6000000000931,short
blue,E,4,True,B,56,B,True,E,,1148571.7000000002,rUuJv5gl7dWVo7UPQWMx4bohxhK2,1546.0999999998603,1147892.5,1146410.8,prp,,False,50.0,False,False,64.39999999990687,T1→T2,1146346.4,56.0,2160.90000000014,short
red,E,6,True,R,57,R,True,E,,1151804.8,rUuJv5gl7dWVo7UPQWMx4bohxhK2,1138.8000000000466,1150737.3,1149660.5,prp,,False,50.0,False,False,62.0,T1→T2,1149598.5,57.0,2144.3000000000466,short
red,E,2,True,R,58,R,True,E,,1155767.2000000002,rUuJv5gl7dWVo7UPQWMx4bohxhK2,1946.0,1154775.6,1153007.3,prp,,False,150.0,False,False,177.69999999995343,T1→T2,1152829.6,58.0,2759.90000000014,short
red,E,4,True,R,60,R,True,E,,1172892.6,rUuJv5gl7dWVo7UPQWMx4bohxhK2,1496.7000000001865,1172309.2000000002,1172022.9,prp,,False,1200.0,False,False,1210.4000000001397,T1→T2,1170812.5,60.0,869.6999999999534,long
red,O,7,True,R,61,R,True,O,,1175712.8,rUuJv5gl7dWVo7UPQWMx4bohxhK2,752.0,1174655.2000000002,1174081.0,prp,,False,150.0,False,False,177.79999999981374,T1→T2,1173903.2000000002,61.0,1631.8000000000466,short
red,O,9,True,R,63,R,True,O,,1182178.5,rUuJv5gl7dWVo7UPQWMx4bohxhK2,1231.3000000000466,1181455.3,1181444.3,prp,,False,1200.0,False,False,1220.3000000000466,T1→T2,1180224.0,63.0,734.1999999999534,long
red,E,6,True,R,64,R,True,E,,1184897.2000000002,rUuJv5gl7dWVo7UPQWMx4bohxhK2,1171.8999999999069,1184379.1,1183272.2000000002,prp,,False,50.0,False,False,65.0,T1→T2,1183207.2000000002,64.0,1625.0,short
blue,O,3,True,B,65,B,True,O,,1187817.8,rUuJv5gl7dWVo7UPQWMx4bohxhK2,1170.4000000001397,1187087.7000000002,1186097.1,prp,,False,150.0,False,False,179.80000000004657,T1→T2,1185917.3,65.0,1720.6999999999534,short
blue,O,7,True,B,66,B,True,O,,1190954.5,rUuJv5gl7dWVo7UPQWMx4bohxhK2,1323.5,1190159.0,1189008.2000000002,prp,,False,150.0,False,False,172.70000000018626,T1→T2,1188835.5,66.0,1946.2999999998133,short
red,O,9,True,R,67,R,True,O,,1193905.8,rUuJv5gl7dWVo7UPQWMx4bohxhK2,1435.8999999999069,1193412.1,1192152.7000000002,prp,,False,150.0,False,False,176.5,T1→T2,1191976.2000000002,67.0,1753.0999999998603,short
blue,E,6,True,B,68,B,True,E,,1197042.4,rUuJv5gl7dWVo7UPQWMx4bohxhK2,1516.8000000000466,1196438.9,1194986.7000000002,prp,,False,50.0,False,False,64.60000000009313,T1→T2,1194922.1,68.0,2055.699999999953,short
blue,O,5,True,B,69,B,True,O,,1201041.5,rUuJv5gl7dWVo7UPQWMx4bohxhK2,1604.0,1199666.0,1198235.6,prp,,False,150.0,False,False,173.60000000009313,T1→T2,1198062.0,69.0,2805.899999999907,short
red,E,8,True,R,70,R,True,E,,1203588.8,rUuJv5gl7dWVo7UPQWMx4bohxhK2,979.1999999999534,1203055.3,1202145.1,prp,,False,50.0,False,False,69.0,T1→T2,1202076.1,70.0,1443.6999999999534,short
blue,E,6,True,B,72,B,True,E,,1209817.6,rUuJv5gl7dWVo7UPQWMx4bohxhK2,1700.1000000000931,1208605.2000000002,1208119.3,prp,,False,1200.0,False,False,1214.1999999999534,T1→T2,1206905.1,72.0,1698.3000000000466,long
blue,E,2,True,B,73,B,True,E,,1213000.3,rUuJv5gl7dWVo7UPQWMx4bohxhK2,1431.5,1212280.0,1211026.5,prp,,False,150.0,False,False,178.0,T1→T2,1210848.5,73.0,1973.8000000000463,short
blue,E,8,True,B,76,B,True,E,,1221157.2000000002,rUuJv5gl7dWVo7UPQWMx4bohxhK2,717.3000000000466,1220759.8,1220211.5,prp,,False,150.0,False,False,169.0,T1→T2,1220042.5,76.0,945.7000000001864,short
blue,O,1,True,B,77,B,True,O,,1224268.9,rUuJv5gl7dWVo7UPQWMx4bohxhK2,1366.1999999999534,1223537.4,1223387.7000000002,prp,,False,1200.0,False,False,1216.5,T1→T2,1222171.2000000002,77.0,881.1999999999534,long
red,E,4,True,R,79,R,True,E,,1229496.2000000002,rUuJv5gl7dWVo7UPQWMx4bohxhK2,729.0,1228473.7000000002,1228953.5,prp,,False,1200.0,False,False,1208.7999999998135,T1→T2,1227744.7000000002,79.0,542.7000000001863,long
blue,O,7,True,B,82,B,True,O,,1238005.8,rUuJv5gl7dWVo7UPQWMx4bohxhK2,816.8000000000466,1237074.7000000002,1236331.7000000002,prp,,False,50.0,False,False,73.80000000004657,T1→T2,1236257.9,82.0,1674.0999999998603,short
red,E,2,True,R,86,R,True,E,,1249915.1,rUuJv5gl7dWVo7UPQWMx4bohxhK2,1790.0999999998603,1248932.3,1247312.3,prp,,False,150.0,False,False,170.0999999998603,T1→T2,1247142.2000000002,86.0,2602.8000000000466,short
blue,O,5,True,B,87,B,True,O,,1252416.9,rUuJv5gl7dWVo7UPQWMx4bohxhK2,920.8999999999068,1251868.5,1251119.2000000002,prp,,False,150.0,False,False,171.60000000009313,T1→T2,1250947.6,87.0,1297.6999999999534,short
blue,E,6,True,B,88,B,True,E,,1255483.6,rUuJv5gl7dWVo7UPQWMx4bohxhK2,879.4000000001397,1254330.4,1254659.2000000002,prp,,False,1200.0,False,False,1208.2000000001865,T1→T2,1253451.0,88.0,824.3999999999069,long
blue,O,5,True,B,91,B,True,O,,1277035.0,rUuJv5gl7dWVo7UPQWMx4bohxhK2,1716.3000000000466,1276274.3,1274728.5,prp,,False,150.0,False,False,170.5,T1→T2,1274558.0,91.0,2306.5,short
red,E,6,True,R,92,R,True,E,,1279925.3,rUuJv5gl7dWVo7UPQWMx4bohxhK2,800.8000000000466,1278872.9,1278143.3,prp,,False,50.0,False,False,71.19999999995343,T1→T2,1278072.1,92.0,1782.0,short
blue,E,8,True,B,94,B,True,E,,1287337.4,rUuJv5gl7dWVo7UPQWMx4bohxhK2,2086.8000000000466,1286467.2000000002,1284451.5,prp,,False,50.0,False,False,71.0999999998603,T1→T2,1284380.4,94.0,2885.90000000014,short
red,O,7,True,R,98,R,True,O,,1300490.8,rUuJv5gl7dWVo7UPQWMx4bohxhK2,1326.4000000001397,1299780.2000000002,1298534.2000000002,prp,,False,50.0,False,False,80.4000000001397,T1→T2,1298453.8,98.0,1956.5999999998603,short
blue,E,6,True,B,100,B,True,E,,1306351.9,rUuJv5gl7dWVo7UPQWMx4bohxhK2,1004.3999999999068,1305218.0,1305428.6,prp,,False,1200.0,False,False,1215.0,T1→T2,1304213.6,100.0,923.3000000000466,long
blue,O,9,True,B,101,B,True,O,,1309574.1,rUuJv5gl7dWVo7UPQWMx4bohxhK2,1000.5,1308381.1,1308602.4,prp,,False,1200.0,False,False,1221.8000000000466,T1→T2,1307380.6,101.0,971.6999999999534,long
red,O,7,True,R,104,R,True,O,,1319242.1,rUuJv5gl7dWVo7UPQWMx4bohxhK2,843.1000000000931,1317907.7000000002,1318277.0,prp,,False,1200.0,False,False,1212.3999999999069,T1→T2,1317064.6,104.0,965.1000000000932,long
blue,E,2,True,B,105,B,True,E,,1322776.8,rUuJv5gl7dWVo7UPQWMx4bohxhK2,1437.6000000000931,1321709.4,1320340.6,prp,,False,50.0,False,False,68.80000000004657,T1→T2,1320271.8,105.0,2436.199999999953,short
red,E,2,True,R,110,R,True,E,,1338432.9,rUuJv5gl7dWVo7UPQWMx4bohxhK2,853.0999999998603,1337329.0,1337683.4,prp,,False,1200.0,False,False,1207.5,T1→T2,1336475.9,110.0,749.5,long
blue,O,9,True,B,113,B,True,O,,1349560.1,rUuJv5gl7dWVo7UPQWMx4bohxhK2,1144.5,1348572.7000000002,1348648.2000000002,prp,,False,1200.0,False,False,1220.0,T1→T2,1347428.2000000002,113.0,911.8999999999068,long
blue,E,6,True,B,114,B,True,E,,1352787.6,rUuJv5gl7dWVo7UPQWMx4bohxhK2,1258.5,1351831.1,1350743.5,prp,,False,150.0,False,False,170.89999999990687,T1→T2,1350572.6,114.0,2044.100000000093,short
red,E,8,True,R,115,R,True,E,,1355592.2000000002,rUuJv5gl7dWVo7UPQWMx4bohxhK2,809.5,1354625.1,1355036.8,prp,,False,1200.0,False,False,1221.1999999999534,T1→T2,1353815.6,115.0,555.4000000001397,long
red,O,7,True,R,116,R,True,O,,1359529.9,rUuJv5gl7dWVo7UPQWMx4bohxhK2,2468.0999999998603,1359082.8,1356786.7000000002,prp,,False,150.0,False,False,172.0,T1→T2,1356614.7000000002,116.0,2743.199999999953,short
blue,O,5,True,B,119,B,True,O,,1368188.8,rUuJv5gl7dWVo7UPQWMx4bohxhK2,761.6000000000931,1366624.7000000002,1367078.7000000002,prp,,False,1200.0,False,False,1215.6000000000931,T1→T2,1365863.1,119.0,1110.0999999998603,long
red,E,2,True,R,2,R,True,E,,345806.8000000003,xyAILKfYP2M8GqAai11x6NT7IcP2,672.5,345563.1000000001,345065.3000000003,prp,,False,150.0,False,False,174.70000000018626,T1→T2,344890.6000000001,2.0,741.5,short
blue,O,3,True,B,5,B,True,O,,352725.9000000004,xyAILKfYP2M8GqAai11x6NT7IcP2,1237.3999999999069,352407.5,351253.1000000001,prp,,False,50.0,False,False,83.0,T1→T2,351170.1000000001,5.0,1472.8000000002794,short
blue,O,3,True,B,6,B,True,O,,355584.1000000001,xyAILKfYP2M8GqAai11x6NT7IcP2,1133.0999999996277,354876.0,354968.8000000003,prp,,False,1200.0,False,False,1225.8999999999069,T1→T2,353742.9000000004,6.0,615.2999999998137,long
red,E,2,True,R,7,R,True,E,,358207.1000000001,xyAILKfYP2M8GqAai11x6NT7IcP2,767.3999999999069,357368.3000000003,357813.8000000003,prp,,False,1200.0,False,False,1212.8999999999069,T1→T2,356600.9000000004,7.0,393.29999999981374,long
red,E,8,True,R,10,R,True,E,,365276.5,xyAILKfYP2M8GqAai11x6NT7IcP2,898.5999999996275,365011.0,364187.5,prp,,False,50.0,False,False,75.09999999962747,T1→T2,364112.4000000004,10.0,1089.0,short
blue,O,9,True,B,11,B,True,O,,368377.8000000003,xyAILKfYP2M8GqAai11x6NT7IcP2,1794.7000000001865,368105.2000000002,366382.9000000004,prp,,False,50.0,False,False,72.40000000037253,T1→T2,366310.5,11.0,1994.8999999999069,short
blue,E,8,True,B,12,B,True,E,,371082.2000000002,xyAILKfYP2M8GqAai11x6NT7IcP2,918.8999999999068,370324.5,369464.0,prp,,False,50.0,False,False,58.39999999990687,T1→T2,369405.6000000001,12.0,1618.2000000001865,short
red,O,9,True,R,13,R,True,O,,374069.0,xyAILKfYP2M8GqAai11x6NT7IcP2,1239.2000000001865,373364.2000000002,372195.6000000001,prp,,False,50.0,False,False,70.60000000009313,T1→T2,372125.0,13.0,1873.3999999999069,short
blue,E,2,True,B,14,B,True,E,,376479.1000000001,xyAILKfYP2M8GqAai11x6NT7IcP2,860.1999999997206,375966.1000000001,375164.3000000003,prp,,False,50.0,False,False,58.39999999990687,T1→T2,375105.9000000004,14.0,1314.7999999998135,short
red,E,4,True,R,15,R,True,E,,379144.1000000001,xyAILKfYP2M8GqAai11x6NT7IcP2,1371.7999999998135,378877.2000000002,377687.1000000001,prp,,False,150.0,False,False,181.6999999997206,T1→T2,377505.4000000004,15.0,1457.0,short
red,O,3,True,R,16,R,True,O,,382366.0,xyAILKfYP2M8GqAai11x6NT7IcP2,1464.7000000001865,381642.7000000002,380348.5,prp,,False,150.0,False,False,170.5,T1→T2,380178.0,16.0,2017.5,short
red,O,7,True,R,17,R,True,O,,384888.2000000002,xyAILKfYP2M8GqAai11x6NT7IcP2,2664.2999999998137,386072.1000000001,383484.4000000004,prp,,True,50.0,False,False,76.60000000009313,T2→T1,383407.8000000003,17.0,1403.7999999998135,short
blue,O,3,True,B,18,B,True,O,,388838.3000000003,xyAILKfYP2M8GqAai11x6NT7IcP2,807.8999999999069,387906.2000000002,388310.1000000001,prp,,False,1200.0,False,False,1211.7999999998135,T1→T2,387098.3000000003,18.0,528.2000000001863,long
red,O,3,True,R,19,R,True,O,,391391.0,xyAILKfYP2M8GqAai11x6NT7IcP2,805.0,390664.5,389933.8000000003,prp,,False,50.0,False,False,74.3000000002794,T1→T2,389859.5,19.0,1457.1999999997206,short
red,O,3,True,R,20,R,True,O,,394094.9000000004,xyAILKfYP2M8GqAai11x6NT7IcP2,769.8000000002794,393201.8000000003,393644.4000000004,prp,,False,1200.0,False,False,1212.4000000003723,T1→T2,392432.0,20.0,450.5,long
red,O,5,True,R,21,R,True,O,,397070.0,xyAILKfYP2M8GqAai11x6NT7IcP2,869.2999999998137,396005.2000000002,396348.7000000002,prp,,False,1200.0,False,False,1212.7999999998135,T1→T2,395135.9000000004,21.0,721.2999999998137,long
red,O,9,True,R,22,R,True,O,,399860.3000000003,xyAILKfYP2M8GqAai11x6NT7IcP2,934.6999999997206,399032.1000000001,399313.5,prp,,False,1200.0,False,False,1216.0999999996277,T1→T2,398097.4000000004,22.0,546.8000000002794,long
red,E,4,True,R,23,R,True,E,,402464.1000000001,xyAILKfYP2M8GqAai11x6NT7IcP2,1144.7000000001865,402024.4000000004,400949.0,prp,,False,50.0,False,False,69.29999999981374,T1→T2,400879.7000000002,23.0,1515.1000000000931,short
blue,O,9,True,B,24,B,True,O,,405153.0,xyAILKfYP2M8GqAai11x6NT7IcP2,853.0,404354.5,404712.9000000004,prp,,False,1200.0,False,False,1211.4000000003723,T1→T2,403501.5,24.0,440.0999999996274,long
blue,E,6,True,B,25,B,True,E,,408569.1000000001,xyAILKfYP2M8GqAai11x6NT7IcP2,1558.6999999997206,407747.1000000001,406367.5,prp,,False,150.0,False,False,179.09999999962747,T1→T2,406188.4000000004,25.0,2201.600000000093,short
red,O,7,True,R,27,R,True,O,,413329.3000000003,xyAILKfYP2M8GqAai11x6NT7IcP2,914.9000000003724,412844.4000000004,412107.2000000002,prp,,False,150.0,False,False,177.70000000018626,T1→T2,411929.5,27.0,1222.1000000000931,short
blue,E,4,True,B,31,B,True,E,,434348.9000000004,xyAILKfYP2M8GqAai11x6NT7IcP2,647.5,433262.4000000004,433825.9000000004,prp,,False,1200.0,False,False,1211.0,T1→T2,432614.9000000004,31.0,523.0,long
blue,E,2,True,B,35,B,True,E,,444144.3000000003,xyAILKfYP2M8GqAai11x6NT7IcP2,859.3999999999069,443536.1000000001,442757.9000000004,prp,,False,50.0,False,False,81.20000000018626,T1→T2,442676.7000000002,35.0,1386.3999999999069,short
red,O,7,True,R,36,R,True,O,,446959.6000000001,xyAILKfYP2M8GqAai11x6NT7IcP2,823.1000000000931,445998.4000000004,446385.9000000004,prp,,False,1200.0,False,False,1210.6000000000931,T1→T2,445175.3000000003,36.0,573.6999999997206,long
blue,O,3,True,B,39,B,True,O,,455191.0,xyAILKfYP2M8GqAai11x6NT7IcP2,901.4000000003724,454847.9000000004,454126.7000000002,prp,,False,150.0,False,False,180.20000000018624,T1→T2,453946.5,39.0,1064.2999999998135,short
red,E,6,True,R,40,R,True,E,,458647.2000000002,xyAILKfYP2M8GqAai11x6NT7IcP2,1943.600000000093,458166.3000000003,456285.3000000003,prp,,False,50.0,False,False,62.60000000009313,T1→T2,456222.7000000002,40.0,2361.899999999907,short
blue,O,7,True,B,45,B,True,O,,470037.6000000001,xyAILKfYP2M8GqAai11x6NT7IcP2,718.1000000000931,469729.6000000001,469184.4000000004,prp,,False,150.0,False,False,172.90000000037253,T1→T2,469011.5,45.0,853.1999999997206,short
blue,E,2,True,B,48,B,True,E,,477464.6000000001,xyAILKfYP2M8GqAai11x6NT7IcP2,1490.5,476876.9000000004,475451.7000000002,prp,,False,50.0,False,False,65.29999999981374,T1→T2,475386.4000000004,48.0,2012.8999999999069,short
red,O,5,True,R,52,R,True,O,,489484.2000000002,xyAILKfYP2M8GqAai11x6NT7IcP2,1718.6000000000931,488878.1000000001,487336.2000000002,prp,,False,150.0,False,False,176.70000000018626,T1→T2,487159.5,52.0,2148.0,short
blue,E,8,True,B,53,B,True,E,,492458.2000000002,xyAILKfYP2M8GqAai11x6NT7IcP2,1381.0,491884.1000000001,490678.5,prp,,False,150.0,False,False,175.39999999990687,T1→T2,490503.1000000001,53.0,1779.7000000001865,short
red,E,6,True,R,55,R,True,E,,496986.0,xyAILKfYP2M8GqAai11x6NT7IcP2,918.9000000003724,496741.4000000004,495889.9000000004,prp,,False,50.0,False,False,67.40000000037253,T1→T2,495822.5,55.0,1096.0999999996277,short
red,E,4,True,R,56,R,True,E,,498939.0,xyAILKfYP2M8GqAai11x6NT7IcP2,683.1999999997206,498705.0,498091.1000000001,prp,,False,50.0,False,False,69.29999999981374,T1→T2,498021.8000000003,56.0,847.8999999999069,short
blue,E,8,True,B,58,B,True,E,,504290.0,xyAILKfYP2M8GqAai11x6NT7IcP2,1612.0,503924.0,502491.3000000003,prp,,False,150.0,False,False,179.3000000002794,T1→T2,502312.0,58.0,1798.6999999997206,short
blue,E,4,True,B,59,B,True,E,,506123.0,xyAILKfYP2M8GqAai11x6NT7IcP2,566.3999999999069,505889.1000000001,505495.9000000004,prp,,False,150.0,False,False,173.20000000018626,T1→T2,505322.7000000002,59.0,627.0999999996275,short
blue,E,6,True,B,61,B,True,E,,522366.1000000001,xyAILKfYP2M8GqAai11x6NT7IcP2,992.6999999997206,521046.1000000001,521275.3000000003,prp,,False,1200.0,False,False,1221.8999999999069,T1→T2,520053.4000000004,61.0,1090.7999999998135,long
blue,O,1,True,B,62,B,True,O,,524845.7000000002,xyAILKfYP2M8GqAai11x6NT7IcP2,1048.0,524447.4000000004,523478.5,prp,,False,50.0,False,False,79.09999999962747,T1→T2,523399.4000000004,62.0,1367.2000000001865,short
red,O,3,True,R,63,R,True,O,,527811.0,xyAILKfYP2M8GqAai11x6NT7IcP2,1428.5,527308.6000000001,525943.5,prp,,False,50.0,False,False,63.39999999990687,T1→T2,525880.1000000001,63.0,1867.5,short
blue,E,6,True,B,64,B,True,E,,530209.9000000004,xyAILKfYP2M8GqAai11x6NT7IcP2,953.6999999997206,529795.5,528910.4000000004,prp,,False,50.0,False,False,68.60000000009313,T1→T2,528841.8000000003,64.0,1299.5,short
red,E,6,True,R,66,R,True,E,,534459.7000000002,xyAILKfYP2M8GqAai11x6NT7IcP2,623.5,534192.7000000002,533643.3000000003,prp,,False,50.0,False,False,74.10000000009313,T1→T2,533569.2000000002,66.0,816.3999999999069,short
blue,O,9,True,B,68,B,True,O,,539374.8000000003,xyAILKfYP2M8GqAai11x6NT7IcP2,1218.3999999999069,539127.7000000002,537978.1000000001,prp,,False,50.0,False,False,68.79999999981374,T1→T2,537909.3000000003,68.0,1396.7000000001865,short
blue,O,9,True,B,69,B,True,O,,542121.2000000002,xyAILKfYP2M8GqAai11x6NT7IcP2,618.8000000002794,541013.8000000003,541613.3000000003,prp,,False,1200.0,False,False,1218.3000000002794,T1→T2,540395.0,69.0,507.89999999990687,long
red,O,5,True,R,70,R,True,O,,544409.6000000001,xyAILKfYP2M8GqAai11x6NT7IcP2,925.1999999997206,544083.1000000001,543323.7000000002,prp,,False,150.0,False,False,165.79999999981374,T1→T2,543157.9000000004,70.0,1085.8999999999069,short
blue,E,6,True,B,74,B,True,E,,554701.9000000004,xyAILKfYP2M8GqAai11x6NT7IcP2,1432.8999999999069,554174.6000000001,552824.0,prp,,False,50.0,False,False,82.29999999981374,T1→T2,552741.7000000002,74.0,1877.9000000003723,short
blue,E,6,True,B,75,B,True,E,,557829.1000000001,xyAILKfYP2M8GqAai11x6NT7IcP2,1353.5,557089.6000000001,555907.4000000004,prp,,False,150.0,False,False,171.3000000002794,T1→T2,555736.1000000001,75.0,1921.6999999997208,short
blue,E,8,True,B,78,B,True,E,,564736.3000000003,xyAILKfYP2M8GqAai11x6NT7IcP2,768.3999999999069,564184.1000000001,563598.6000000001,prp,,False,150.0,False,False,182.89999999990687,T1→T2,563415.7000000002,78.0,1137.7000000001865,short
red,E,8,True,R,79,R,True,E,,567587.1000000001,xyAILKfYP2M8GqAai11x6NT7IcP2,988.0,566752.0,566974.5,prp,,False,1200.0,False,False,1210.5,T1→T2,565764.0,79.0,612.6000000000931,long
blue,O,7,True,B,80,B,True,O,,570404.4000000004,xyAILKfYP2M8GqAai11x6NT7IcP2,1350.8999999999069,569959.1000000001,568674.6000000001,prp,,False,50.0,False,False,66.39999999990687,T1→T2,568608.2000000002,80.0,1729.8000000002794,short
red,E,4,True,R,82,R,True,E,,575446.1000000001,xyAILKfYP2M8GqAai11x6NT7IcP2,625.2000000001863,574340.9000000004,574931.5,prp,,False,1200.0,False,False,1215.7999999998135,T1→T2,573715.7000000002,82.0,514.6000000000931,long
red,O,7,True,R,83,R,True,O,,578260.0,xyAILKfYP2M8GqAai11x6NT7IcP2,1309.2000000001865,577786.2000000002,576651.9000000004,prp,,False,150.0,False,False,174.90000000037253,T1→T2,576477.0,83.0,1608.0999999996277,short
red,E,8,True,R,84,R,True,E,,581152.0,xyAILKfYP2M8GqAai11x6NT7IcP2,711.1999999997206,579998.0,580498.1000000001,prp,,False,1200.0,False,False,1211.2999999998135,T1→T2,579286.8000000003,84.0,653.8999999999069,long
blue,O,3,True,B,85,B,True,O,,583900.9000000004,xyAILKfYP2M8GqAai11x6NT7IcP2,532.2999999998137,582719.6000000001,583403.1000000001,prp,,False,1200.0,False,False,1215.7999999998135,T1→T2,582187.3000000003,85.0,497.8000000002794,long
red,O,1,True,R,86,R,True,O,,586801.0,xyAILKfYP2M8GqAai11x6NT7IcP2,1036.8000000002794,585970.9000000004,585114.1000000001,prp,,False,150.0,False,False,180.0,T1→T2,584934.1000000001,86.0,1686.8999999999069,short
red,E,8,True,R,88,R,True,E,,592600.1000000001,xyAILKfYP2M8GqAai11x6NT7IcP2,534.1999999997206,591326.1000000001,592008.5,prp,,False,1200.0,False,False,1216.5999999996277,T1→T2,590791.9000000004,88.0,591.6000000000931,long
red,O,5,True,R,89,R,True,O,,595375.9000000004,xyAILKfYP2M8GqAai11x6NT7IcP2,603.9000000003725,594236.4000000004,594844.8000000003,prp,,False,1200.0,False,False,1212.3000000002794,T1→T2,593632.5,89.0,531.1000000000931,long
blue,O,1,True,B,90,B,True,O,,607988.2000000002,xyAILKfYP2M8GqAai11x6NT7IcP2,1210.2000000001865,607620.7000000002,606578.0,prp,,False,150.0,False,False,167.5,T1→T2,606410.5,90.0,1410.2000000001865,short
red,E,8,True,R,96,R,True,E,,622818.0,xyAILKfYP2M8GqAai11x6NT7IcP2,1263.0999999996277,622378.0,621278.1000000001,prp,,False,150.0,False,False,163.1999999997206,T1→T2,621114.9000000004,96.0,1539.8999999999069,short
blue,O,7,True,B,97,B,True,O,,625253.8000000003,xyAILKfYP2M8GqAai11x6NT7IcP2,951.5999999996276,624800.0,624017.8000000003,prp,,False,150.0,False,False,169.39999999990687,T1→T2,623848.4000000004,97.0,1236.0,short
red,O,7,True,R,100,R,True,O,,632951.2000000002,xyAILKfYP2M8GqAai11x6NT7IcP2,1364.9000000003723,632581.4000000004,631285.3000000003,prp,,False,50.0,False,False,68.8000000002794,T1→T2,631216.5,100.0,1665.8999999999069,short
red,E,8,True,R,103,R,True,E,,641320.0,xyAILKfYP2M8GqAai11x6NT7IcP2,1010.7000000001864,640506.4000000004,640715.7000000002,prp,,False,1200.0,False,False,1220.0,T1→T2,639495.7000000002,103.0,604.2999999998137,long
blue,O,3,True,B,107,B,True,O,,652622.4000000004,xyAILKfYP2M8GqAai11x6NT7IcP2,2390.100000000093,652240.4000000004,650019.3000000003,prp,,False,150.0,False,False,169.0,T1→T2,649850.3000000003,107.0,2603.100000000093,short
red,E,2,True,R,109,R,True,E,,658073.1000000001,xyAILKfYP2M8GqAai11x6NT7IcP2,1537.2000000001865,657340.7000000002,655989.3000000003,prp,,False,150.0,False,False,185.8000000002794,T1→T2,655803.5,109.0,2083.7999999998137,short
red,O,1,True,R,110,R,True,O,,661065.9000000004,xyAILKfYP2M8GqAai11x6NT7IcP2,825.7000000001863,659929.3000000003,660310.5,prp,,False,1200.0,False,False,1206.8999999999069,T1→T2,659103.6000000001,110.0,755.4000000003725,long
red,E,4,True,R,111,R,True,E,,663879.2000000002,xyAILKfYP2M8GqAai11x6NT7IcP2,1475.6000000000931,663577.4000000004,662269.8000000003,prp,,False,150.0,False,False,168.0,T1→T2,662101.8000000003,111.0,1609.3999999999069,short
red,O,5,True,R,112,R,True,O,,666654.2000000002,xyAILKfYP2M8GqAai11x6NT7IcP2,1239.6999999997206,666152.0,664985.7000000002,prp,,False,50.0,False,False,73.39999999990687,T1→T2,664912.3000000003,112.0,1668.5,short
blue,O,7,True,B,113,B,True,O,,669683.7000000002,xyAILKfYP2M8GqAai11x6NT7IcP2,1558.5,669242.1000000001,667753.1000000001,prp,,False,50.0,False,False,69.5,T1→T2,667683.6000000001,113.0,1930.600000000093,short
blue,E,8,True,B,114,B,True,E,,672514.0,xyAILKfYP2M8GqAai11x6NT7IcP2,924.8999999999068,671625.8000000003,671917.0,prp,,False,1200.0,False,False,1216.0999999996277,T1→T2,670700.9000000004,114.0,597.0,long
blue,O,5,True,B,115,B,True,O,,674819.1000000001,xyAILKfYP2M8GqAai11x6NT7IcP2,972.1000000000932,674527.3000000003,673735.0,prp,,False,150.0,False,False,179.79999999981374,T1→T2,673555.2000000002,115.0,1084.1000000000931,short
blue,E,4,True,B,116,B,True,E,,677635.1000000001,xyAILKfYP2M8GqAai11x6NT7IcP2,824.5,676680.8000000003,677073.9000000004,prp,,False,1200.0,False,False,1217.6000000000931,T1→T2,675856.3000000003,116.0,561.1999999997206,long
blue,E,6,True,B,117,B,True,E,,680814.2000000002,xyAILKfYP2M8GqAai11x6NT7IcP2,797.8999999999069,679452.0,679862.2000000002,prp,,False,1200.0,False,False,1208.1000000000931,T1→T2,678654.1000000001,117.0,952.0,long
red,E,8,True,R,118,R,True,E,,683962.0,xyAILKfYP2M8GqAai11x6NT7IcP2,1744.7999999998135,683588.0,682017.0,prp,,False,150.0,False,False,173.79999999981374,T1→T2,681843.2000000002,118.0,1945.0,short
blue,O,3,True,B,119,B,True,O,,686925.8000000003,xyAILKfYP2M8GqAai11x6NT7IcP2,872.1000000000931,685848.1000000001,686187.2000000002,prp,,False,1200.0,False,False,1211.2000000001865,T1→T2,684976.0,119.0,738.6000000000931,long
red,E,2,True,R,0,R,True,E,,701471.5000000001,pcbRW89vVJcviD87V3uxyG4I9st2,2004.90000000014,702131.5000000001,700207.6,prp,,True,50.0,False,False,81.0,T2→T1,700126.6,0.0,1263.9000000001397,short
red,E,6,True,R,1,R,True,E,,705148.1,pcbRW89vVJcviD87V3uxyG4I9st2,1474.3999999999069,704643.4,704393.4,prp,,False,1200.0,False,False,1224.3999999999069,T1→T2,703169.0000000001,1.0,754.6999999999534,long
red,O,7,True,R,2,R,True,O,,708385.1,pcbRW89vVJcviD87V3uxyG4I9st2,805.6000000000931,706984.4,707391.4,prp,,False,1200.0,False,False,1212.6000000000931,T1→T2,706178.7999999999,2.0,993.6999999999534,long
red,E,2,True,R,3,R,True,E,,711016.2000000001,pcbRW89vVJcviD87V3uxyG4I9st2,542.5999999998603,709950.2999999999,710634.1,prp,,False,1200.0,False,False,1226.3999999999069,T1→T2,709407.7000000001,3.0,382.10000000009313,long
red,E,6,True,R,4,R,True,E,,713050.2000000001,pcbRW89vVJcviD87V3uxyG4I9st2,648.1999999999534,712687.2999999999,712197.2999999999,prp,,False,150.0,False,False,158.19999999995343,T1→T2,712039.1,4.0,852.9000000001397,short
red,E,2,True,R,5,R,True,E,,714903.1,pcbRW89vVJcviD87V3uxyG4I9st2,613.3000000000466,714697.4,714168.1,prp,,False,50.0,False,False,84.0,T1→T2,714084.1,5.0,735.0,short
red,O,7,True,R,9,R,True,O,,723292.2999999999,pcbRW89vVJcviD87V3uxyG4I9st2,901.0,722684.2000000001,721958.7999999999,prp,,False,150.0,False,False,175.5999999998603,T1→T2,721783.2000000001,9.0,1333.5,short
blue,E,8,True,B,10,B,True,E,,725146.4,pcbRW89vVJcviD87V3uxyG4I9st2,597.9000000001397,724916.5000000001,724381.7999999999,prp,,False,50.0,False,False,63.19999999995344,T1→T2,724318.6,10.0,764.6000000000931,short
blue,O,7,True,B,11,B,True,O,,727398.2000000001,pcbRW89vVJcviD87V3uxyG4I9st2,767.8999999999069,726934.6,726332.4,prp,,False,150.0,False,False,165.69999999995343,T1→T2,726166.7000000001,11.0,1065.8000000000466,short
red,O,1,True,R,19,R,True,O,,747485.2000000001,pcbRW89vVJcviD87V3uxyG4I9st2,719.6999999999534,746964.4,746325.6,prp,,False,50.0,False,False,80.89999999990687,T1→T2,746244.7000000001,19.0,1159.6000000000931,short
blue,O,5,True,B,21,B,True,O,,752115.6,pcbRW89vVJcviD87V3uxyG4I9st2,689.0999999998603,751785.2999999999,751276.4,prp,,False,150.0,False,False,180.19999999995343,T1→T2,751096.2000000001,21.0,839.1999999999534,short
blue,E,8,True,B,23,B,True,E,,757213.5000000001,pcbRW89vVJcviD87V3uxyG4I9st2,751.3999999999069,756105.2999999999,756567.1,prp,,False,1200.0,False,False,1213.1999999999534,T1→T2,755353.9,23.0,646.4000000001397,long
blue,O,3,True,B,24,B,True,O,,759354.4,pcbRW89vVJcviD87V3uxyG4I9st2,662.5,758913.2999999999,758327.0000000001,prp,,False,50.0,False,False,76.20000000018626,T1→T2,758250.7999999999,24.0,1027.3999999999069,short
red,O,7,True,R,25,R,True,O,,761282.0000000001,pcbRW89vVJcviD87V3uxyG4I9st2,677.6999999999534,761057.2999999999,760560.1,prp,,False,150.0,False,False,180.5,T1→T2,760379.6,25.0,721.9000000001397,short
blue,O,3,True,B,26,B,True,O,,764041.2000000001,pcbRW89vVJcviD87V3uxyG4I9st2,718.6999999999534,763037.2000000001,763532.2000000001,prp,,False,1200.0,False,False,1213.6999999999534,T1→T2,762318.5000000001,26.0,509.0,long
blue,O,3,True,B,27,B,True,O,,765888.2000000001,pcbRW89vVJcviD87V3uxyG4I9st2,735.5,765808.2000000001,765161.7000000001,prp,,False,50.0,False,False,89.0,T1→T2,765072.7000000001,27.0,726.5,short
blue,E,2,True,B,29,B,True,E,,770700.2000000001,pcbRW89vVJcviD87V3uxyG4I9st2,1195.7000000001865,770420.5000000001,769410.2000000001,prp,,False,150.0,False,False,185.4000000001397,T1→T2,769224.7999999999,29.0,1290.0,short
blue,E,8,True,B,30,B,True,E,,782792.2999999999,pcbRW89vVJcviD87V3uxyG4I9st2,713.1000000000931,782465.4,781828.0000000001,prp,,False,50.0,False,False,75.70000000018626,T1→T2,781752.2999999999,30.0,964.2999999998136,short
blue,E,2,True,B,31,B,True,E,,784626.7000000001,pcbRW89vVJcviD87V3uxyG4I9st2,663.6000000000931,784488.2000000001,783912.2999999999,prp,,False,50.0,False,False,87.69999999995343,T1→T2,783824.6,31.0,714.4000000001397,short
blue,E,8,True,B,33,B,True,E,,788476.7000000001,pcbRW89vVJcviD87V3uxyG4I9st2,609.6000000000931,788201.4,787771.2000000001,prp,,False,150.0,False,False,179.4000000001397,T1→T2,787591.7999999999,33.0,705.5,short
red,O,3,True,R,34,R,True,O,,791015.2000000001,pcbRW89vVJcviD87V3uxyG4I9st2,600.6000000000931,790097.5000000001,790718.0000000001,prp,,False,1200.0,False,False,1221.1000000000931,T1→T2,789496.9,34.0,297.19999999995343,long
red,O,5,True,R,35,R,True,O,,792798.2999999999,pcbRW89vVJcviD87V3uxyG4I9st2,544.5999999998603,792584.2999999999,792129.2999999999,prp,,False,50.0,False,False,89.5999999998603,T1→T2,792039.7000000001,35.0,669.0,short
blue,O,5,True,B,36,B,True,O,,794624.4,pcbRW89vVJcviD87V3uxyG4I9st2,617.4000000001397,794450.0000000001,794012.7000000001,prp,,False,150.0,False,False,180.10000000009313,T1→T2,793832.6,36.0,611.6999999999534,short
blue,E,4,True,B,37,B,True,E,,797347.5000000001,pcbRW89vVJcviD87V3uxyG4I9st2,587.4000000001397,796236.5000000001,796872.7999999999,prp,,False,1200.0,False,False,1223.6999999999534,T1→T2,795649.1,37.0,474.7000000001863,long
red,O,7,True,R,38,R,True,O,,799507.5000000001,pcbRW89vVJcviD87V3uxyG4I9st2,968.5,799357.6,798480.2999999999,prp,,False,50.0,False,False,91.19999999995343,T1→T2,798389.1,38.0,1027.2000000001865,short
red,O,1,True,R,40,R,True,O,,804144.4,pcbRW89vVJcviD87V3uxyG4I9st2,1481.6000000000931,803905.5000000001,803646.6,prp,,False,1200.0,False,False,1222.6999999999534,T1→T2,802423.9,40.0,497.80000000004657,long
blue,O,3,True,B,41,B,True,O,,806024.2999999999,pcbRW89vVJcviD87V3uxyG4I9st2,655.1000000000931,805829.2000000001,805363.6,prp,,False,150.0,False,False,189.5,T1→T2,805174.1,41.0,660.6999999999534,short
red,E,2,True,R,42,R,True,E,,808689.2000000001,pcbRW89vVJcviD87V3uxyG4I9st2,1542.1000000000931,808596.2000000001,808268.1,prp,,False,1200.0,False,False,1214.0,T1→T2,807054.1,42.0,421.10000000009313,long
blue,E,6,True,B,44,B,True,E,,813887.5000000001,pcbRW89vVJcviD87V3uxyG4I9st2,1428.6000000000931,813703.2000000001,812457.7000000001,prp,,False,150.0,False,False,183.1000000000932,T1→T2,812274.6,44.0,1429.8000000000466,short
blue,E,8,True,B,45,B,True,E,,816606.7000000001,pcbRW89vVJcviD87V3uxyG4I9st2,1576.6999999999534,816495.2999999999,816140.4,prp,,False,1200.0,False,False,1221.8000000000466,T1→T2,814918.6,45.0,466.30000000004657,long
red,E,6,True,R,47,R,True,E,,821559.4,pcbRW89vVJcviD87V3uxyG4I9st2,1639.4000000001397,821467.7000000001,821040.6,prp,,False,1200.0,False,False,1212.3000000000466,T1→T2,819828.2999999999,47.0,518.8000000000466,long
red,O,9,True,R,48,R,True,O,,823504.4,pcbRW89vVJcviD87V3uxyG4I9st2,808.5,823405.4,822779.6,prp,,False,150.0,False,False,182.69999999995343,T1→T2,822596.9,48.0,724.8000000000466,short
blue,E,8,True,B,49,B,True,E,,825307.1,pcbRW89vVJcviD87V3uxyG4I9st2,672.8999999999069,825212.7999999999,824614.2000000001,prp,,False,50.0,False,False,74.30000000004657,T1→T2,824539.9,49.0,692.8999999999069,short
red,E,8,True,R,50,R,True,E,,827304.9,pcbRW89vVJcviD87V3uxyG4I9st2,876.8000000000466,827213.4,826405.4,prp,,False,50.0,False,False,68.80000000004657,T1→T2,826336.6,50.0,899.5,short
red,E,2,True,R,51,R,True,E,,829175.0000000001,pcbRW89vVJcviD87V3uxyG4I9st2,751.0,829085.2999999999,828410.5000000001,prp,,False,50.0,False,False,76.20000000018626,T1→T2,828334.2999999999,51.0,764.5,short
