correct,trial,letterColor,type,text,userColor,participant_id,stim_onset_ms,task,block_index,timeout,cond,extra,is_timeout,rt,resp_time_ms,trial_index
True,0,yellow,neutral,기차,yellow,GE4hogtdLdTFbNasENgtm6SO3hC3,1070399.199999988,stroop,,False,neutral,"{'text': '기차', 'letterColor': 'yellow', 'userColor': 'yellow'}",False,1810.199999988079,1072209.3999999762,0.0
True,1,yellow,incongruent,파랑,yellow,GE4hogtdLdTFbNasENgtm6SO3hC3,1072831.599999994,stroop,,False,incongruent,"{'text': '파랑', 'letterColor': 'yellow', 'userColor': 'yellow'}",False,1316.4000000059605,1074148.0,1.0
True,2,green,incongruent,빨강,green,GE4hogtdLdTFbNasENgtm6SO3hC3,1074781.0,stroop,,False,incongruent,"{'text': '빨강', 'letterColor': 'green', 'userColor': 'green'}",False,1200.699999988079,1075981.699999988,2.0
True,3,red,neutral,기차,red,GE4hogtdLdTFbNasENgtm6SO3hC3,1076608.5,stroop,,False,neutral,"{'text': '기차', 'letterColor': 'red', 'userColor': 'red'}",False,1185.5,1077794.0,3.0
True,4,blue,neutral,기차,blue,GE4hogtdLdTFbNasENgtm6SO3hC3,1078412.0,stroop,,False,neutral,"{'text': '기차', 'letterColor': 'blue', 'userColor': 'blue'}",False,1648.0999999940395,1080060.099999994,4.0
True,5,yellow,congruent,노랑,yellow,GE4hogtdLdTFbNasENgtm6SO3hC3,1080677.5,stroop,,False,congruent,"{'text': '노랑', 'letterColor': 'yellow', 'userColor': 'yellow'}",False,1184.5,1081862.0,5.0
True,7,red,neutral,학교,red,GE4hogtdLdTFbNasENgtm6SO3hC3,1084198.0,stroop,,False,neutral,"{'text': '학교', 'letterColor': 'red', 'userColor': 'red'}",False,1230.5999999940395,1085428.599999994,7.0
True,8,yellow,neutral,가방,yellow,GE4hogtdLdTFbNasENgtm6SO3hC3,1086063.699999988,stroop,,False,neutral,"{'text': '가방', 'letterColor': 'yellow', 'userColor': 'yellow'}",False,1194.5,1087258.199999988,8.0
True,9,red,congruent,빨강,red,GE4hogtdLdTFbNasENgtm6SO3hC3,1087872.0,stroop,,False,congruent,"{'text': '빨강', 'letterColor': 'red', 'userColor': 'red'}",False,1214.899999976158,1089086.8999999762,9.0
True,10,red,neutral,가방,red,GE4hogtdLdTFbNasENgtm6SO3hC3,1089712.3999999762,stroop,,False,neutral,"{'text': '가방', 'letterColor': 'red', 'userColor': 'red'}",False,1505.100000023842,1091217.5,10.0
True,11,red,incongruent,파랑,red,GE4hogtdLdTFbNasENgtm6SO3hC3,1091830.799999982,stroop,,False,incongruent,"{'text': '파랑', 'letterColor': 'red', 'userColor': 'red'}",False,1283.4000000059605,1093114.199999988,11.0
True,12,yellow,congruent,노랑,yellow,GE4hogtdLdTFbNasENgtm6SO3hC3,1093744.5,stroop,,False,congruent,"{'text': '노랑', 'letterColor': 'yellow', 'userColor': 'yellow'}",False,1093.699999988079,1094838.199999988,12.0
True,13,yellow,incongruent,초록,yellow,GE4hogtdLdTFbNasENgtm6SO3hC3,1095463.699999988,stroop,,False,incongruent,"{'text': '초록', 'letterColor': 'yellow', 'userColor': 'yellow'}",False,1538.699999988079,1097002.3999999762,13.0
True,14,green,neutral,학교,green,GE4hogtdLdTFbNasENgtm6SO3hC3,1097634.0,stroop,,False,neutral,"{'text': '학교', 'letterColor': 'green', 'userColor': 'green'}",False,1567.5999999940395,1099201.599999994,14.0
True,15,yellow,incongruent,빨강,yellow,GE4hogtdLdTFbNasENgtm6SO3hC3,1099815.8999999762,stroop,,False,incongruent,"{'text': '빨강', 'letterColor': 'yellow', 'userColor': 'yellow'}",False,1471.300000011921,1101287.199999988,15.0
True,16,green,incongruent,노랑,green,GE4hogtdLdTFbNasENgtm6SO3hC3,1101916.5,stroop,,False,incongruent,"{'text': '노랑', 'letterColor': 'green', 'userColor': 'green'}",False,1286.2999999821186,1103202.799999982,16.0
True,17,blue,congruent,파랑,blue,GE4hogtdLdTFbNasENgtm6SO3hC3,1103813.5,stroop,,False,congruent,"{'text': '파랑', 'letterColor': 'blue', 'userColor': 'blue'}",False,1017.899999976158,1104831.3999999762,17.0
True,18,blue,incongruent,노랑,blue,GE4hogtdLdTFbNasENgtm6SO3hC3,1105444.3999999762,stroop,,False,incongruent,"{'text': '노랑', 'letterColor': 'blue', 'userColor': 'blue'}",False,1801.6000000238416,1107246.0,18.0
True,19,green,congruent,초록,green,GE4hogtdLdTFbNasENgtm6SO3hC3,1107867.799999982,stroop,,False,congruent,"{'text': '초록', 'letterColor': 'green', 'userColor': 'green'}",False,921.0999999940396,1108788.8999999762,19.0
True,20,green,neutral,가방,green,GE4hogtdLdTFbNasENgtm6SO3hC3,1109412.099999994,stroop,,False,neutral,"{'text': '가방', 'letterColor': 'green', 'userColor': 'green'}",False,2332.199999988079,1111744.299999982,20.0
True,21,green,congruent,초록,green,GE4hogtdLdTFbNasENgtm6SO3hC3,1112363.3999999762,stroop,,False,congruent,"{'text': '초록', 'letterColor': 'green', 'userColor': 'green'}",False,575.1000000238419,1112938.5,21.0
True,22,red,congruent,빨강,red,GE4hogtdLdTFbNasENgtm6SO3hC3,1113561.699999988,stroop,,False,congruent,"{'text': '빨강', 'letterColor': 'red', 'userColor': 'red'}",False,851.1999999880791,1114412.8999999762,22.0
True,23,blue,neutral,기차,blue,GE4hogtdLdTFbNasENgtm6SO3hC3,1115028.699999988,stroop,,False,neutral,"{'text': '기차', 'letterColor': 'blue', 'userColor': 'blue'}",False,832.5,1115861.199999988,23.0
True,24,yellow,congruent,노랑,yellow,GE4hogtdLdTFbNasENgtm6SO3hC3,1116478.3999999762,stroop,,False,congruent,"{'text': '노랑', 'letterColor': 'yellow', 'userColor': 'yellow'}",False,1966.800000011921,1118445.199999988,24.0
True,25,blue,congruent,파랑,blue,GE4hogtdLdTFbNasENgtm6SO3hC3,1119063.599999994,stroop,,False,congruent,"{'text': '파랑', 'letterColor': 'blue', 'userColor': 'blue'}",False,1308.5,1120372.099999994,25.0
True,26,yellow,neutral,기차,yellow,GE4hogtdLdTFbNasENgtm6SO3hC3,1120995.099999994,stroop,,False,neutral,"{'text': '기차', 'letterColor': 'yellow', 'userColor': 'yellow'}",False,1409.199999988079,1122404.299999982,26.0
True,27,blue,incongruent,노랑,blue,GE4hogtdLdTFbNasENgtm6SO3hC3,1123027.599999994,stroop,,False,incongruent,"{'text': '노랑', 'letterColor': 'blue', 'userColor': 'blue'}",False,1379.9000000059605,1124407.5,27.0
True,28,red,incongruent,파랑,red,GE4hogtdLdTFbNasENgtm6SO3hC3,1125028.599999994,stroop,,False,incongruent,"{'text': '파랑', 'letterColor': 'red', 'userColor': 'red'}",False,1638.5999999940395,1126667.199999988,28.0
True,31,blue,incongruent,초록,blue,GE4hogtdLdTFbNasENgtm6SO3hC3,1134454.299999982,stroop,,False,incongruent,"{'text': '초록', 'letterColor': 'blue', 'userColor': 'blue'}",False,1961.2000000178807,1136415.5,31.0
True,32,yellow,congruent,노랑,yellow,GE4hogtdLdTFbNasENgtm6SO3hC3,1137041.5,stroop,,False,congruent,"{'text': '노랑', 'letterColor': 'yellow', 'userColor': 'yellow'}",False,1139.0999999940395,1138180.599999994,32.0
True,33,red,neutral,학교,red,GE4hogtdLdTFbNasENgtm6SO3hC3,1138791.799999982,stroop,,False,neutral,"{'text': '학교', 'letterColor': 'red', 'userColor': 'red'}",False,1330.300000011921,1140122.099999994,33.0
True,34,green,congruent,초록,green,GE4hogtdLdTFbNasENgtm6SO3hC3,1140749.099999994,stroop,,False,congruent,"{'text': '초록', 'letterColor': 'green', 'userColor': 'green'}",False,1110.699999988079,1141859.799999982,34.0
True,35,red,congruent,빨강,red,GE4hogtdLdTFbNasENgtm6SO3hC3,1142472.199999988,stroop,,False,congruent,"{'text': '빨강', 'letterColor': 'red', 'userColor': 'red'}",False,1125.300000011921,1143597.5,35.0
True,36,green,neutral,학교,green,GE4hogtdLdTFbNasENgtm6SO3hC3,1144212.099999994,stroop,,False,neutral,"{'text': '학교', 'letterColor': 'green', 'userColor': 'green'}",False,970.4000000059604,1145182.5,36.0
True,37,green,congruent,초록,green,GE4hogtdLdTFbNasENgtm6SO3hC3,1145810.599999994,stroop,,False,congruent,"{'text': '초록', 'letterColor': 'green', 'userColor': 'green'}",False,604.4000000059605,1146415.0,37.0
True,38,blue,incongruent,초록,blue,GE4hogtdLdTFbNasENgtm6SO3hC3,1147028.299999982,stroop,,False,incongruent,"{'text': '초록', 'letterColor': 'blue', 'userColor': 'blue'}",False,1851.5999999940395,1148879.8999999762,38.0
True,39,blue,incongruent,빨강,blue,GE4hogtdLdTFbNasENgtm6SO3hC3,1149500.199999988,stroop,,False,incongruent,"{'text': '빨강', 'letterColor': 'blue', 'userColor': 'blue'}",False,765.0999999940395,1150265.299999982,39.0
True,41,blue,neutral,학교,blue,GE4hogtdLdTFbNasENgtm6SO3hC3,1152402.799999982,stroop,,False,neutral,"{'text': '학교', 'letterColor': 'blue', 'userColor': 'blue'}",False,955.3000000119208,1153358.099999994,41.0
True,42,blue,congruent,파랑,blue,GE4hogtdLdTFbNasENgtm6SO3hC3,1153977.799999982,stroop,,False,congruent,"{'text': '파랑', 'letterColor': 'blue', 'userColor': 'blue'}",False,633.3000000119209,1154611.099999994,42.0
True,43,blue,incongruent,빨강,blue,GE4hogtdLdTFbNasENgtm6SO3hC3,1155230.099999994,stroop,,False,incongruent,"{'text': '빨강', 'letterColor': 'blue', 'userColor': 'blue'}",False,602.6999999880791,1155832.799999982,43.0
True,44,yellow,incongruent,초록,yellow,GE4hogtdLdTFbNasENgtm6SO3hC3,1156455.199999988,stroop,,False,incongruent,"{'text': '초록', 'letterColor': 'yellow', 'userColor': 'yellow'}",False,1413.5999999940395,1157868.799999982,44.0
True,45,red,congruent,빨강,red,GE4hogtdLdTFbNasENgtm6SO3hC3,1158480.5,stroop,,False,congruent,"{'text': '빨강', 'letterColor': 'red', 'userColor': 'red'}",False,1555.5999999940395,1160036.099999994,45.0
True,46,yellow,neutral,학교,yellow,GE4hogtdLdTFbNasENgtm6SO3hC3,1160656.199999988,stroop,,False,neutral,"{'text': '학교', 'letterColor': 'yellow', 'userColor': 'yellow'}",False,1337.800000011921,1161994.0,46.0
True,47,blue,congruent,파랑,blue,GE4hogtdLdTFbNasENgtm6SO3hC3,1162608.299999982,stroop,,False,congruent,"{'text': '파랑', 'letterColor': 'blue', 'userColor': 'blue'}",False,1130.0999999940395,1163738.3999999762,47.0
True,48,blue,incongruent,빨강,blue,GE4hogtdLdTFbNasENgtm6SO3hC3,1164361.3999999762,stroop,,False,incongruent,"{'text': '빨강', 'letterColor': 'blue', 'userColor': 'blue'}",False,443.7000000178814,1164805.099999994,48.0
True,49,green,congruent,초록,green,GE4hogtdLdTFbNasENgtm6SO3hC3,1165433.199999988,stroop,,False,congruent,"{'text': '초록', 'letterColor': 'green', 'userColor': 'green'}",False,1412.5999999940395,1166845.799999982,49.0
True,50,green,incongruent,빨강,green,GE4hogtdLdTFbNasENgtm6SO3hC3,1167475.099999994,stroop,,False,incongruent,"{'text': '빨강', 'letterColor': 'green', 'userColor': 'green'}",False,1095.0999999940395,1168570.199999988,50.0
True,51,green,congruent,초록,green,GE4hogtdLdTFbNasENgtm6SO3hC3,1169195.8999999762,stroop,,False,congruent,"{'text': '초록', 'letterColor': 'green', 'userColor': 'green'}",False,651.1000000238419,1169847.0,51.0
True,52,red,neutral,가방,red,GE4hogtdLdTFbNasENgtm6SO3hC3,1170466.199999988,stroop,,False,neutral,"{'text': '가방', 'letterColor': 'red', 'userColor': 'red'}",False,1356.800000011921,1171823.0,52.0
True,53,blue,neutral,학교,blue,GE4hogtdLdTFbNasENgtm6SO3hC3,1172458.699999988,stroop,,False,neutral,"{'text': '학교', 'letterColor': 'blue', 'userColor': 'blue'}",False,1075.800000011921,1173534.5,53.0
True,54,green,neutral,가방,green,GE4hogtdLdTFbNasENgtm6SO3hC3,1174161.299999982,stroop,,False,neutral,"{'text': '가방', 'letterColor': 'green', 'userColor': 'green'}",False,1339.4000000059605,1175500.699999988,54.0
True,55,red,incongruent,초록,red,GE4hogtdLdTFbNasENgtm6SO3hC3,1176120.0,stroop,,False,incongruent,"{'text': '초록', 'letterColor': 'red', 'userColor': 'red'}",False,1642.199999988079,1177762.199999988,55.0
True,56,yellow,incongruent,파랑,yellow,GE4hogtdLdTFbNasENgtm6SO3hC3,1178385.3999999762,stroop,,False,incongruent,"{'text': '파랑', 'letterColor': 'yellow', 'userColor': 'yellow'}",False,1490.5,1179875.8999999762,56.0
True,57,red,neutral,가방,red,GE4hogtdLdTFbNasENgtm6SO3hC3,1180498.8999999762,stroop,,False,neutral,"{'text': '가방', 'letterColor': 'red', 'userColor': 'red'}",False,1417.5,1181916.3999999762,57.0
True,58,red,congruent,빨강,red,GE4hogtdLdTFbNasENgtm6SO3hC3,1182544.699999988,stroop,,False,congruent,"{'text': '빨강', 'letterColor': 'red', 'userColor': 'red'}",False,645.5999999940395,1183190.299999982,58.0
True,59,green,neutral,기차,green,GE4hogtdLdTFbNasENgtm6SO3hC3,1183816.299999982,stroop,,False,neutral,"{'text': '기차', 'letterColor': 'green', 'userColor': 'green'}",False,1099.0,1184915.299999982,59.0
True,60,blue,neutral,학교,blue,GE4hogtdLdTFbNasENgtm6SO3hC3,1185545.8999999762,stroop,,False,neutral,"{'text': '학교', 'letterColor': 'blue', 'userColor': 'blue'}",False,1191.0,1186736.8999999762,60.0
True,61,yellow,neutral,기차,yellow,GE4hogtdLdTFbNasENgtm6SO3hC3,1187361.799999982,stroop,,False,neutral,"{'text': '기차', 'letterColor': 'yellow', 'userColor': 'yellow'}",False,1311.9000000059605,1188673.699999988,61.0
True,62,green,neutral,기차,green,GE4hogtdLdTFbNasENgtm6SO3hC3,1189299.799999982,stroop,,False,neutral,"{'text': '기차', 'letterColor': 'green', 'userColor': 'green'}",False,1445.5,1190745.299999982,62.0
True,63,yellow,incongruent,빨강,yellow,GE4hogtdLdTFbNasENgtm6SO3hC3,1191363.5,stroop,,False,incongruent,"{'text': '빨강', 'letterColor': 'yellow', 'userColor': 'yellow'}",False,1471.5999999940395,1192835.099999994,63.0
True,64,yellow,incongruent,파랑,yellow,GE4hogtdLdTFbNasENgtm6SO3hC3,1193445.599999994,stroop,,False,incongruent,"{'text': '파랑', 'letterColor': 'yellow', 'userColor': 'yellow'}",False,972.7999999821186,1194418.3999999762,64.0
True,65,yellow,congruent,노랑,yellow,GE4hogtdLdTFbNasENgtm6SO3hC3,1195045.8999999762,stroop,,False,congruent,"{'text': '노랑', 'letterColor': 'yellow', 'userColor': 'yellow'}",False,762.7000000178814,1195808.599999994,65.0
True,66,red,neutral,학교,red,GE4hogtdLdTFbNasENgtm6SO3hC3,1196440.299999982,stroop,,False,neutral,"{'text': '학교', 'letterColor': 'red', 'userColor': 'red'}",False,1918.5,1198358.799999982,66.0
True,67,yellow,incongruent,빨강,yellow,GE4hogtdLdTFbNasENgtm6SO3hC3,1198968.799999982,stroop,,False,incongruent,"{'text': '빨강', 'letterColor': 'yellow', 'userColor': 'yellow'}",False,1477.0,1200445.799999982,67.0
True,68,green,incongruent,파랑,green,GE4hogtdLdTFbNasENgtm6SO3hC3,1201064.0,stroop,,False,incongruent,"{'text': '파랑', 'letterColor': 'green', 'userColor': 'green'}",False,996.899999976158,1202060.8999999762,68.0
True,69,blue,incongruent,노랑,blue,GE4hogtdLdTFbNasENgtm6SO3hC3,1202677.799999982,stroop,,False,incongruent,"{'text': '노랑', 'letterColor': 'blue', 'userColor': 'blue'}",False,952.2000000178814,1203630.0,69.0
True,70,red,congruent,빨강,red,GE4hogtdLdTFbNasENgtm6SO3hC3,1204262.3999999762,stroop,,False,congruent,"{'text': '빨강', 'letterColor': 'red', 'userColor': 'red'}",False,1214.100000023842,1205476.5,70.0
True,71,blue,neutral,가방,blue,GE4hogtdLdTFbNasENgtm6SO3hC3,1206104.599999994,stroop,,False,neutral,"{'text': '가방', 'letterColor': 'blue', 'userColor': 'blue'}",False,1140.5999999940395,1207245.199999988,71.0
True,72,blue,congruent,파랑,blue,GE4hogtdLdTFbNasENgtm6SO3hC3,1207868.3999999762,stroop,,False,congruent,"{'text': '파랑', 'letterColor': 'blue', 'userColor': 'blue'}",False,821.9000000059605,1208690.299999982,72.0
True,73,yellow,congruent,노랑,yellow,GE4hogtdLdTFbNasENgtm6SO3hC3,1209317.699999988,stroop,,False,congruent,"{'text': '노랑', 'letterColor': 'yellow', 'userColor': 'yellow'}",False,1014.8000000119208,1210332.5,73.0
True,74,green,incongruent,노랑,green,GE4hogtdLdTFbNasENgtm6SO3hC3,1210961.3999999762,stroop,,False,incongruent,"{'text': '노랑', 'letterColor': 'green', 'userColor': 'green'}",False,1327.7000000178814,1212289.099999994,74.0
True,75,blue,congruent,파랑,blue,GE4hogtdLdTFbNasENgtm6SO3hC3,1212914.8999999762,stroop,,False,congruent,"{'text': '파랑', 'letterColor': 'blue', 'userColor': 'blue'}",False,1048.9000000059605,1213963.799999982,75.0
True,76,green,incongruent,파랑,green,GE4hogtdLdTFbNasENgtm6SO3hC3,1214584.299999982,stroop,,False,incongruent,"{'text': '파랑', 'letterColor': 'green', 'userColor': 'green'}",False,984.3000000119208,1215568.599999994,76.0
True,77,yellow,neutral,학교,yellow,GE4hogtdLdTFbNasENgtm6SO3hC3,1216182.199999988,stroop,,False,neutral,"{'text': '학교', 'letterColor': 'yellow', 'userColor': 'yellow'}",False,960.4000000059604,1217142.599999994,77.0
True,78,green,neutral,학교,green,GE4hogtdLdTFbNasENgtm6SO3hC3,1217765.5,stroop,,False,neutral,"{'text': '학교', 'letterColor': 'green', 'userColor': 'green'}",False,1267.5,1219033.0,78.0
True,79,red,neutral,기차,red,GE4hogtdLdTFbNasENgtm6SO3hC3,1219651.099999994,stroop,,False,neutral,"{'text': '기차', 'letterColor': 'red', 'userColor': 'red'}",False,1273.7999999821186,1220924.8999999762,79.0
True,80,blue,congruent,파랑,blue,GE4hogtdLdTFbNasENgtm6SO3hC3,1221537.3999999762,stroop,,False,congruent,"{'text': '파랑', 'letterColor': 'blue', 'userColor': 'blue'}",False,1100.300000011921,1222637.699999988,80.0
True,81,red,congruent,빨강,red,GE4hogtdLdTFbNasENgtm6SO3hC3,1223261.799999982,stroop,,False,congruent,"{'text': '빨강', 'letterColor': 'red', 'userColor': 'red'}",False,1919.7000000178807,1225181.5,81.0
True,82,blue,congruent,파랑,blue,GE4hogtdLdTFbNasENgtm6SO3hC3,1225801.699999988,stroop,,False,congruent,"{'text': '파랑', 'letterColor': 'blue', 'userColor': 'blue'}",False,2023.5999999940395,1227825.299999982,82.0
True,83,blue,neutral,가방,blue,GE4hogtdLdTFbNasENgtm6SO3hC3,1228447.0,stroop,,False,neutral,"{'text': '가방', 'letterColor': 'blue', 'userColor': 'blue'}",False,917.6999999880792,1229364.699999988,83.0
True,84,yellow,congruent,노랑,yellow,GE4hogtdLdTFbNasENgtm6SO3hC3,1229979.199999988,stroop,,False,congruent,"{'text': '노랑', 'letterColor': 'yellow', 'userColor': 'yellow'}",False,953.4000000059604,1230932.599999994,84.0
True,85,red,incongruent,파랑,red,GE4hogtdLdTFbNasENgtm6SO3hC3,1231562.099999994,stroop,,False,incongruent,"{'text': '파랑', 'letterColor': 'red', 'userColor': 'red'}",False,1578.0999999940395,1233140.199999988,85.0
True,86,green,congruent,초록,green,GE4hogtdLdTFbNasENgtm6SO3hC3,1233774.3999999762,stroop,,False,congruent,"{'text': '초록', 'letterColor': 'green', 'userColor': 'green'}",False,1777.800000011921,1235552.199999988,86.0
True,87,green,neutral,기차,green,GE4hogtdLdTFbNasENgtm6SO3hC3,1236184.099999994,stroop,,False,neutral,"{'text': '기차', 'letterColor': 'green', 'userColor': 'green'}",False,578.5,1236762.599999994,87.0
True,88,green,congruent,초록,green,GE4hogtdLdTFbNasENgtm6SO3hC3,1237382.3999999762,stroop,,False,congruent,"{'text': '초록', 'letterColor': 'green', 'userColor': 'green'}",False,609.1000000238419,1237991.5,88.0
True,89,green,neutral,가방,green,GE4hogtdLdTFbNasENgtm6SO3hC3,1238612.0,stroop,,False,neutral,"{'text': '가방', 'letterColor': 'green', 'userColor': 'green'}",False,601.0,1239213.0,89.0
True,90,red,incongruent,초록,red,GE4hogtdLdTFbNasENgtm6SO3hC3,1239830.0,stroop,,False,incongruent,"{'text': '초록', 'letterColor': 'red', 'userColor': 'red'}",False,1170.2999999821186,1241000.299999982,90.0
True,91,yellow,congruent,노랑,yellow,GE4hogtdLdTFbNasENgtm6SO3hC3,1241612.5,stroop,,False,congruent,"{'text': '노랑', 'letterColor': 'yellow', 'userColor': 'yellow'}",False,1064.5999999940395,1242677.099999994,91.0
True,92,yellow,neutral,가방,yellow,GE4hogtdLdTFbNasENgtm6SO3hC3,1243298.3999999762,stroop,,False,neutral,"{'text': '가방', 'letterColor': 'yellow', 'userColor': 'yellow'}",False,576.9000000059605,1243875.299999982,92.0
True,93,blue,neutral,기차,blue,GE4hogtdLdTFbNasENgtm6SO3hC3,1244495.099999994,stroop,,False,neutral,"{'text': '기차', 'letterColor': 'blue', 'userColor': 'blue'}",False,977.1999999880792,1245472.299999982,93.0
True,94,red,congruent,빨강,red,GE4hogtdLdTFbNasENgtm6SO3hC3,1246088.3999999762,stroop,,False,congruent,"{'text': '빨강', 'letterColor': 'red', 'userColor': 'red'}",False,1143.300000011921,1247231.699999988,94.0
True,95,blue,neutral,가방,blue,GE4hogtdLdTFbNasENgtm6SO3hC3,1247863.199999988,stroop,,False,neutral,"{'text': '가방', 'letterColor': 'blue', 'userColor': 'blue'}",False,1037.300000011921,1248900.5,95.0
True,96,blue,incongruent,초록,blue,GE4hogtdLdTFbNasENgtm6SO3hC3,1249513.799999982,stroop,,False,incongruent,"{'text': '초록', 'letterColor': 'blue', 'userColor': 'blue'}",False,502.59999999403954,1250016.3999999762,96.0
True,97,blue,congruent,파랑,blue,GE4hogtdLdTFbNasENgtm6SO3hC3,1250631.8999999762,stroop,,False,congruent,"{'text': '파랑', 'letterColor': 'blue', 'userColor': 'blue'}",False,493.2000000178814,1251125.099999994,97.0
True,98,green,incongruent,빨강,green,GE4hogtdLdTFbNasENgtm6SO3hC3,1251739.0,stroop,,False,incongruent,"{'text': '빨강', 'letterColor': 'green', 'userColor': 'green'}",False,1054.5999999940395,1252793.599999994,98.0
True,99,red,incongruent,노랑,red,GE4hogtdLdTFbNasENgtm6SO3hC3,1253403.3999999762,stroop,,False,incongruent,"{'text': '노랑', 'letterColor': 'red', 'userColor': 'red'}",False,1361.4000000059605,1254764.799999982,99.0
True,100,red,neutral,기차,red,GE4hogtdLdTFbNasENgtm6SO3hC3,1255396.199999988,stroop,,False,neutral,"{'text': '기차', 'letterColor': 'red', 'userColor': 'red'}",False,785.4000000059605,1256181.599999994,100.0
True,101,yellow,neutral,학교,yellow,GE4hogtdLdTFbNasENgtm6SO3hC3,1256797.699999988,stroop,,False,neutral,"{'text': '학교', 'letterColor': 'yellow', 'userColor': 'yellow'}",False,1179.0999999940395,1257976.799999982,101.0
True,102,red,incongruent,초록,red,GE4hogtdLdTFbNasENgtm6SO3hC3,1258596.299999982,stroop,,False,incongruent,"{'text': '초록', 'letterColor': 'red', 'userColor': 'red'}",False,1122.0,1259718.299999982,102.0
True,103,yellow,congruent,노랑,yellow,GE4hogtdLdTFbNasENgtm6SO3hC3,1260345.599999994,stroop,,False,congruent,"{'text': '노랑', 'letterColor': 'yellow', 'userColor': 'yellow'}",False,1051.2999999821186,1261396.8999999762,103.0
True,104,red,incongruent,노랑,red,GE4hogtdLdTFbNasENgtm6SO3hC3,1262015.199999988,stroop,,False,incongruent,"{'text': '노랑', 'letterColor': 'red', 'userColor': 'red'}",False,1480.300000011921,1263495.5,104.0
True,105,yellow,neutral,가방,yellow,GE4hogtdLdTFbNasENgtm6SO3hC3,1264115.3999999762,stroop,,False,neutral,"{'text': '가방', 'letterColor': 'yellow', 'userColor': 'yellow'}",False,1452.9000000059605,1265568.299999982,105.0
True,106,red,congruent,빨강,red,GE4hogtdLdTFbNasENgtm6SO3hC3,1266197.799999982,stroop,,False,congruent,"{'text': '빨강', 'letterColor': 'red', 'userColor': 'red'}",False,1365.0999999940395,1267562.8999999762,106.0
True,107,green,incongruent,노랑,green,GE4hogtdLdTFbNasENgtm6SO3hC3,1268180.599999994,stroop,,False,incongruent,"{'text': '노랑', 'letterColor': 'green', 'userColor': 'green'}",False,1185.2999999821186,1269365.8999999762,107.0
True,0,yellow,incongruent,초록,yellow,ORvIk1xRWIQmKuLVe6GXNouvAXx2,1007835.1000000238,stroop,,False,incongruent,"{'text': '초록', 'letterColor': 'yellow', 'userColor': 'yellow'}",False,912.5,1008747.6000000238,0.0
True,1,blue,congruent,파랑,blue,ORvIk1xRWIQmKuLVe6GXNouvAXx2,1009366.4000000954,stroop,,False,congruent,"{'text': '파랑', 'letterColor': 'blue', 'userColor': 'blue'}",False,988.399999976158,1010354.8000000716,1.0
True,2,blue,incongruent,빨강,blue,ORvIk1xRWIQmKuLVe6GXNouvAXx2,1010969.6000000238,stroop,,False,incongruent,"{'text': '빨강', 'letterColor': 'blue', 'userColor': 'blue'}",False,920.7000000476836,1011890.3000000716,2.0
True,3,red,congruent,빨강,red,ORvIk1xRWIQmKuLVe6GXNouvAXx2,1012515.1000000238,stroop,,False,congruent,"{'text': '빨강', 'letterColor': 'red', 'userColor': 'red'}",False,1100.600000023842,1013615.7000000476,3.0
True,4,green,neutral,기차,green,ORvIk1xRWIQmKuLVe6GXNouvAXx2,1014248.4000000954,stroop,,False,neutral,"{'text': '기차', 'letterColor': 'green', 'userColor': 'green'}",False,1351.0,1015599.4000000954,4.0
True,5,green,neutral,가방,green,ORvIk1xRWIQmKuLVe6GXNouvAXx2,1016221.0,stroop,,False,neutral,"{'text': '가방', 'letterColor': 'green', 'userColor': 'green'}",False,845.7000000476837,1017066.7000000476,5.0
True,6,blue,incongruent,초록,blue,ORvIk1xRWIQmKuLVe6GXNouvAXx2,1017686.6000000238,stroop,,False,incongruent,"{'text': '초록', 'letterColor': 'blue', 'userColor': 'blue'}",False,1194.899999976158,1018881.5,6.0
True,7,blue,incongruent,노랑,blue,ORvIk1xRWIQmKuLVe6GXNouvAXx2,1019499.9000000954,stroop,,False,incongruent,"{'text': '노랑', 'letterColor': 'blue', 'userColor': 'blue'}",False,1049.5999999046326,1020549.5,7.0
True,8,red,congruent,빨강,red,ORvIk1xRWIQmKuLVe6GXNouvAXx2,1021166.5,stroop,,False,congruent,"{'text': '빨강', 'letterColor': 'red', 'userColor': 'red'}",False,1193.2000000476835,1022359.7000000476,8.0
True,9,green,congruent,초록,green,ORvIk1xRWIQmKuLVe6GXNouvAXx2,1022986.5,stroop,,False,congruent,"{'text': '초록', 'letterColor': 'green', 'userColor': 'green'}",False,695.9000000953674,1023682.4000000954,9.0
True,11,green,incongruent,파랑,green,ORvIk1xRWIQmKuLVe6GXNouvAXx2,1025750.1000000238,stroop,,False,incongruent,"{'text': '파랑', 'letterColor': 'green', 'userColor': 'green'}",False,1427.8000000715256,1027177.9000000954,11.0
True,12,yellow,neutral,가방,yellow,ORvIk1xRWIQmKuLVe6GXNouvAXx2,1027804.3000000716,stroop,,False,neutral,"{'text': '가방', 'letterColor': 'yellow', 'userColor': 'yellow'}",False,913.1999999284744,1028717.5,12.0
True,13,red,neutral,기차,red,ORvIk1xRWIQmKuLVe6GXNouvAXx2,1029350.4000000954,stroop,,False,neutral,"{'text': '기차', 'letterColor': 'red', 'userColor': 'red'}",False,1055.0999999046326,1030405.5,13.0
True,14,red,incongruent,초록,red,ORvIk1xRWIQmKuLVe6GXNouvAXx2,1031035.4000000954,stroop,,False,incongruent,"{'text': '초록', 'letterColor': 'red', 'userColor': 'red'}",False,1214.399999976158,1032249.8000000716,14.0
True,15,blue,neutral,기차,blue,ORvIk1xRWIQmKuLVe6GXNouvAXx2,1032868.8000000716,stroop,,False,neutral,"{'text': '기차', 'letterColor': 'blue', 'userColor': 'blue'}",False,784.7999999523163,1033653.6000000238,15.0
True,16,blue,neutral,가방,blue,ORvIk1xRWIQmKuLVe6GXNouvAXx2,1034286.6000000238,stroop,,False,neutral,"{'text': '가방', 'letterColor': 'blue', 'userColor': 'blue'}",False,1342.7000000476835,1035629.3000000716,16.0
True,17,blue,congruent,파랑,blue,ORvIk1xRWIQmKuLVe6GXNouvAXx2,1036241.7000000476,stroop,,False,congruent,"{'text': '파랑', 'letterColor': 'blue', 'userColor': 'blue'}",False,749.5,1036991.2000000476,17.0
True,18,green,incongruent,빨강,green,ORvIk1xRWIQmKuLVe6GXNouvAXx2,1037620.7000000476,stroop,,False,incongruent,"{'text': '빨강', 'letterColor': 'green', 'userColor': 'green'}",False,933.100000023842,1038553.8000000716,18.0
True,19,green,congruent,초록,green,ORvIk1xRWIQmKuLVe6GXNouvAXx2,1039169.8000000716,stroop,,False,congruent,"{'text': '초록', 'letterColor': 'green', 'userColor': 'green'}",False,551.8999999761581,1039721.7000000476,19.0
True,20,red,incongruent,파랑,red,ORvIk1xRWIQmKuLVe6GXNouvAXx2,1040340.0,stroop,,False,incongruent,"{'text': '파랑', 'letterColor': 'red', 'userColor': 'red'}",False,1311.9000000953674,1041651.9000000954,20.0
True,21,green,incongruent,빨강,green,ORvIk1xRWIQmKuLVe6GXNouvAXx2,1042266.9000000954,stroop,,False,incongruent,"{'text': '빨강', 'letterColor': 'green', 'userColor': 'green'}",False,1502.5,1043769.4000000954,21.0
True,22,green,congruent,초록,green,ORvIk1xRWIQmKuLVe6GXNouvAXx2,1044405.7000000476,stroop,,False,congruent,"{'text': '초록', 'letterColor': 'green', 'userColor': 'green'}",False,648.8999999761581,1045054.6000000238,22.0
True,23,green,incongruent,파랑,green,ORvIk1xRWIQmKuLVe6GXNouvAXx2,1045671.4000000954,stroop,,False,incongruent,"{'text': '파랑', 'letterColor': 'green', 'userColor': 'green'}",False,595.0999999046326,1046266.5,23.0
True,24,blue,congruent,파랑,blue,ORvIk1xRWIQmKuLVe6GXNouvAXx2,1046892.6000000238,stroop,,False,congruent,"{'text': '파랑', 'letterColor': 'blue', 'userColor': 'blue'}",False,827.7000000476837,1047720.3000000716,24.0
True,25,yellow,congruent,노랑,yellow,ORvIk1xRWIQmKuLVe6GXNouvAXx2,1048330.7000000476,stroop,,False,congruent,"{'text': '노랑', 'letterColor': 'yellow', 'userColor': 'yellow'}",False,1167.600000023842,1049498.3000000715,25.0
True,26,green,congruent,초록,green,ORvIk1xRWIQmKuLVe6GXNouvAXx2,1050113.4000000954,stroop,,False,congruent,"{'text': '초록', 'letterColor': 'green', 'userColor': 'green'}",False,766.8999999761581,1050880.3000000715,26.0
True,27,red,incongruent,초록,red,ORvIk1xRWIQmKuLVe6GXNouvAXx2,1051502.1000000238,stroop,,False,incongruent,"{'text': '초록', 'letterColor': 'red', 'userColor': 'red'}",False,900.3000000715256,1052402.4000000954,27.0
True,28,yellow,congruent,노랑,yellow,ORvIk1xRWIQmKuLVe6GXNouvAXx2,1053021.5,stroop,,False,congruent,"{'text': '노랑', 'letterColor': 'yellow', 'userColor': 'yellow'}",False,1321.5,1054343.0,28.0
True,29,red,neutral,학교,red,ORvIk1xRWIQmKuLVe6GXNouvAXx2,1054989.5,stroop,,False,neutral,"{'text': '학교', 'letterColor': 'red', 'userColor': 'red'}",False,1127.600000023842,1056117.1000000238,29.0
True,30,blue,incongruent,빨강,blue,ORvIk1xRWIQmKuLVe6GXNouvAXx2,1056738.0,stroop,,False,incongruent,"{'text': '빨강', 'letterColor': 'blue', 'userColor': 'blue'}",False,1614.7000000476835,1058352.7000000477,30.0
True,31,red,congruent,빨강,red,ORvIk1xRWIQmKuLVe6GXNouvAXx2,1058976.0,stroop,,False,congruent,"{'text': '빨강', 'letterColor': 'red', 'userColor': 'red'}",False,780.9000000953674,1059756.9000000954,31.0
True,32,green,congruent,초록,green,ORvIk1xRWIQmKuLVe6GXNouvAXx2,1060386.6000000238,stroop,,False,congruent,"{'text': '초록', 'letterColor': 'green', 'userColor': 'green'}",False,665.3999999761581,1061052.0,32.0
True,33,green,incongruent,노랑,green,ORvIk1xRWIQmKuLVe6GXNouvAXx2,1061676.1000000238,stroop,,False,incongruent,"{'text': '노랑', 'letterColor': 'green', 'userColor': 'green'}",False,825.6000000238419,1062501.7000000477,33.0
True,34,yellow,congruent,노랑,yellow,ORvIk1xRWIQmKuLVe6GXNouvAXx2,1063120.6000000238,stroop,,False,congruent,"{'text': '노랑', 'letterColor': 'yellow', 'userColor': 'yellow'}",False,753.3000000715256,1063873.9000000954,34.0
True,35,green,congruent,초록,green,ORvIk1xRWIQmKuLVe6GXNouvAXx2,1064489.0,stroop,,False,congruent,"{'text': '초록', 'letterColor': 'green', 'userColor': 'green'}",False,592.7000000476837,1065081.7000000477,35.0
True,36,red,congruent,빨강,red,ORvIk1xRWIQmKuLVe6GXNouvAXx2,1065714.3000000715,stroop,,False,congruent,"{'text': '빨강', 'letterColor': 'red', 'userColor': 'red'}",False,823.1999999284744,1066537.5,36.0
True,37,red,neutral,학교,red,ORvIk1xRWIQmKuLVe6GXNouvAXx2,1067172.2000000477,stroop,,False,neutral,"{'text': '학교', 'letterColor': 'red', 'userColor': 'red'}",False,918.7000000476836,1068090.9000000954,37.0
True,38,yellow,incongruent,빨강,yellow,ORvIk1xRWIQmKuLVe6GXNouvAXx2,1068718.5,stroop,,False,incongruent,"{'text': '빨강', 'letterColor': 'yellow', 'userColor': 'yellow'}",False,740.7000000476837,1069459.2000000477,38.0
True,39,green,congruent,초록,green,ORvIk1xRWIQmKuLVe6GXNouvAXx2,1070070.4000000954,stroop,,False,congruent,"{'text': '초록', 'letterColor': 'green', 'userColor': 'green'}",False,619.5999999046326,1070690.0,39.0
True,40,red,neutral,가방,red,ORvIk1xRWIQmKuLVe6GXNouvAXx2,1071321.4000000954,stroop,,False,neutral,"{'text': '가방', 'letterColor': 'red', 'userColor': 'red'}",False,735.6999999284744,1072057.1000000238,40.0
True,41,blue,neutral,가방,blue,ORvIk1xRWIQmKuLVe6GXNouvAXx2,1072672.1000000238,stroop,,False,neutral,"{'text': '가방', 'letterColor': 'blue', 'userColor': 'blue'}",False,876.2000000476837,1073548.3000000715,41.0
True,42,red,incongruent,노랑,red,ORvIk1xRWIQmKuLVe6GXNouvAXx2,1074173.4000000954,stroop,,False,incongruent,"{'text': '노랑', 'letterColor': 'red', 'userColor': 'red'}",False,1101.0,1075274.4000000954,42.0
True,43,yellow,congruent,노랑,yellow,ORvIk1xRWIQmKuLVe6GXNouvAXx2,1075906.2000000477,stroop,,False,congruent,"{'text': '노랑', 'letterColor': 'yellow', 'userColor': 'yellow'}",False,699.0,1076605.2000000477,43.0
True,44,blue,congruent,파랑,blue,ORvIk1xRWIQmKuLVe6GXNouvAXx2,1077240.0,stroop,,False,congruent,"{'text': '파랑', 'letterColor': 'blue', 'userColor': 'blue'}",False,1721.600000023842,1078961.6000000238,44.0
True,45,green,neutral,기차,green,ORvIk1xRWIQmKuLVe6GXNouvAXx2,1079576.6000000238,stroop,,False,neutral,"{'text': '기차', 'letterColor': 'green', 'userColor': 'green'}",False,745.5,1080322.1000000238,45.0
True,46,blue,neutral,가방,blue,ORvIk1xRWIQmKuLVe6GXNouvAXx2,1080944.0,stroop,,False,neutral,"{'text': '가방', 'letterColor': 'blue', 'userColor': 'blue'}",False,611.5,1081555.5,46.0
True,48,blue,congruent,파랑,blue,ORvIk1xRWIQmKuLVe6GXNouvAXx2,1083414.4000000954,stroop,,False,congruent,"{'text': '파랑', 'letterColor': 'blue', 'userColor': 'blue'}",False,955.5,1084369.9000000954,48.0
True,49,green,neutral,학교,green,ORvIk1xRWIQmKuLVe6GXNouvAXx2,1084990.7000000477,stroop,,False,neutral,"{'text': '학교', 'letterColor': 'green', 'userColor': 'green'}",False,728.8999999761581,1085719.6000000238,49.0
True,50,yellow,neutral,가방,yellow,ORvIk1xRWIQmKuLVe6GXNouvAXx2,1086354.9000000954,stroop,,False,neutral,"{'text': '가방', 'letterColor': 'yellow', 'userColor': 'yellow'}",False,842.5,1087197.4000000954,50.0
True,51,yellow,congruent,노랑,yellow,ORvIk1xRWIQmKuLVe6GXNouvAXx2,1087824.2000000477,stroop,,False,congruent,"{'text': '노랑', 'letterColor': 'yellow', 'userColor': 'yellow'}",False,683.2999999523163,1088507.5,51.0
True,52,red,congruent,빨강,red,ORvIk1xRWIQmKuLVe6GXNouvAXx2,1089141.1000000238,stroop,,False,congruent,"{'text': '빨강', 'letterColor': 'red', 'userColor': 'red'}",False,811.3999999761581,1089952.5,52.0
True,53,blue,congruent,파랑,blue,ORvIk1xRWIQmKuLVe6GXNouvAXx2,1090584.7000000477,stroop,,False,congruent,"{'text': '파랑', 'letterColor': 'blue', 'userColor': 'blue'}",False,535.2999999523163,1091120.0,53.0
True,54,yellow,neutral,학교,yellow,ORvIk1xRWIQmKuLVe6GXNouvAXx2,1091739.5,stroop,,False,neutral,"{'text': '학교', 'letterColor': 'yellow', 'userColor': 'yellow'}",False,739.7000000476837,1092479.2000000477,54.0
True,55,yellow,incongruent,파랑,yellow,ORvIk1xRWIQmKuLVe6GXNouvAXx2,1093107.1000000238,stroop,,False,incongruent,"{'text': '파랑', 'letterColor': 'yellow', 'userColor': 'yellow'}",False,1201.899999976158,1094309.0,55.0
True,56,red,neutral,가방,red,ORvIk1xRWIQmKuLVe6GXNouvAXx2,1094938.0,stroop,,False,neutral,"{'text': '가방', 'letterColor': 'red', 'userColor': 'red'}",False,786.8000000715256,1095724.8000000715,56.0
True,57,red,neutral,기차,red,ORvIk1xRWIQmKuLVe6GXNouvAXx2,1096340.9000000954,stroop,,False,neutral,"{'text': '기차', 'letterColor': 'red', 'userColor': 'red'}",False,894.0999999046326,1097235.0,57.0
True,58,yellow,incongruent,파랑,yellow,ORvIk1xRWIQmKuLVe6GXNouvAXx2,1097843.9000000954,stroop,,False,incongruent,"{'text': '파랑', 'letterColor': 'yellow', 'userColor': 'yellow'}",False,1680.1999999284744,1099524.1000000238,58.0
True,59,red,incongruent,파랑,red,ORvIk1xRWIQmKuLVe6GXNouvAXx2,1100156.5,stroop,,False,incongruent,"{'text': '파랑', 'letterColor': 'red', 'userColor': 'red'}",False,975.3000000715256,1101131.8000000715,59.0
True,60,red,neutral,학교,red,ORvIk1xRWIQmKuLVe6GXNouvAXx2,1101758.4000000954,stroop,,False,neutral,"{'text': '학교', 'letterColor': 'red', 'userColor': 'red'}",False,1265.0999999046326,1103023.5,60.0
True,61,green,incongruent,노랑,green,ORvIk1xRWIQmKuLVe6GXNouvAXx2,1103631.8000000715,stroop,,False,incongruent,"{'text': '노랑', 'letterColor': 'green', 'userColor': 'green'}",False,1166.6999999284744,1104798.5,61.0
True,62,green,congruent,초록,green,ORvIk1xRWIQmKuLVe6GXNouvAXx2,1105425.9000000954,stroop,,False,congruent,"{'text': '초록', 'letterColor': 'green', 'userColor': 'green'}",False,632.0,1106057.9000000954,62.0
True,63,blue,neutral,학교,blue,ORvIk1xRWIQmKuLVe6GXNouvAXx2,1106694.8000000715,stroop,,False,neutral,"{'text': '학교', 'letterColor': 'blue', 'userColor': 'blue'}",False,1295.2999999523165,1107990.1000000238,63.0
True,64,red,congruent,빨강,red,ORvIk1xRWIQmKuLVe6GXNouvAXx2,1108609.8000000715,stroop,,False,congruent,"{'text': '빨강', 'letterColor': 'red', 'userColor': 'red'}",False,855.5,1109465.3000000715,64.0
True,65,yellow,neutral,학교,yellow,ORvIk1xRWIQmKuLVe6GXNouvAXx2,1110074.9000000954,stroop,,False,neutral,"{'text': '학교', 'letterColor': 'yellow', 'userColor': 'yellow'}",False,1100.5999999046326,1111175.5,65.0
True,66,yellow,neutral,기차,yellow,ORvIk1xRWIQmKuLVe6GXNouvAXx2,1111791.9000000954,stroop,,False,neutral,"{'text': '기차', 'letterColor': 'yellow', 'userColor': 'yellow'}",False,640.8999999761581,1112432.8000000715,66.0
True,67,red,congruent,빨강,red,ORvIk1xRWIQmKuLVe6GXNouvAXx2,1113049.5,stroop,,False,congruent,"{'text': '빨강', 'letterColor': 'red', 'userColor': 'red'}",False,864.0,1113913.5,67.0
True,68,yellow,neutral,기차,yellow,ORvIk1xRWIQmKuLVe6GXNouvAXx2,1114527.0,stroop,,False,neutral,"{'text': '기차', 'letterColor': 'yellow', 'userColor': 'yellow'}",False,1055.7000000476835,1115582.7000000477,68.0
True,69,red,incongruent,파랑,red,ORvIk1xRWIQmKuLVe6GXNouvAXx2,1116207.5,stroop,,False,incongruent,"{'text': '파랑', 'letterColor': 'red', 'userColor': 'red'}",False,1230.100000023842,1117437.6000000238,69.0
True,70,red,incongruent,노랑,red,ORvIk1xRWIQmKuLVe6GXNouvAXx2,1118054.6000000238,stroop,,False,incongruent,"{'text': '노랑', 'letterColor': 'red', 'userColor': 'red'}",False,862.2000000476837,1118916.8000000715,70.0
True,71,yellow,incongruent,초록,yellow,ORvIk1xRWIQmKuLVe6GXNouvAXx2,1119545.0,stroop,,False,incongruent,"{'text': '초록', 'letterColor': 'yellow', 'userColor': 'yellow'}",False,901.600000023842,1120446.6000000238,71.0
True,72,yellow,neutral,기차,yellow,ORvIk1xRWIQmKuLVe6GXNouvAXx2,1121073.8000000715,stroop,,False,neutral,"{'text': '기차', 'letterColor': 'yellow', 'userColor': 'yellow'}",False,647.8999999761581,1121721.7000000477,72.0
True,73,green,incongruent,빨강,green,ORvIk1xRWIQmKuLVe6GXNouvAXx2,1122350.3000000715,stroop,,False,incongruent,"{'text': '빨강', 'letterColor': 'green', 'userColor': 'green'}",False,893.1999999284744,1123243.5,73.0
True,74,blue,neutral,기차,blue,ORvIk1xRWIQmKuLVe6GXNouvAXx2,1123877.7000000477,stroop,,False,neutral,"{'text': '기차', 'letterColor': 'blue', 'userColor': 'blue'}",False,638.3999999761581,1124516.1000000238,74.0
True,75,red,neutral,기차,red,ORvIk1xRWIQmKuLVe6GXNouvAXx2,1125142.0,stroop,,False,neutral,"{'text': '기차', 'letterColor': 'red', 'userColor': 'red'}",False,674.8000000715256,1125816.8000000715,75.0
True,76,red,incongruent,초록,red,ORvIk1xRWIQmKuLVe6GXNouvAXx2,1126430.1000000238,stroop,,False,incongruent,"{'text': '초록', 'letterColor': 'red', 'userColor': 'red'}",False,725.3999999761581,1127155.5,76.0
True,77,blue,incongruent,빨강,blue,ORvIk1xRWIQmKuLVe6GXNouvAXx2,1127778.2000000477,stroop,,False,incongruent,"{'text': '빨강', 'letterColor': 'blue', 'userColor': 'blue'}",False,1250.7000000476835,1129028.9000000954,77.0
True,78,yellow,congruent,노랑,yellow,ORvIk1xRWIQmKuLVe6GXNouvAXx2,1129649.9000000954,stroop,,False,congruent,"{'text': '노랑', 'letterColor': 'yellow', 'userColor': 'yellow'}",False,738.8999999761581,1130388.8000000715,78.0
True,79,green,incongruent,노랑,green,ORvIk1xRWIQmKuLVe6GXNouvAXx2,1131010.6000000238,stroop,,False,incongruent,"{'text': '노랑', 'letterColor': 'green', 'userColor': 'green'}",False,1054.600000023842,1132065.2000000477,79.0
True,80,green,neutral,기차,green,ORvIk1xRWIQmKuLVe6GXNouvAXx2,1132694.2000000477,stroop,,False,neutral,"{'text': '기차', 'letterColor': 'green', 'userColor': 'green'}",False,1392.7000000476835,1134086.9000000954,80.0
True,81,red,congruent,빨강,red,ORvIk1xRWIQmKuLVe6GXNouvAXx2,1134716.2000000477,stroop,,False,congruent,"{'text': '빨강', 'letterColor': 'red', 'userColor': 'red'}",False,704.6000000238419,1135420.8000000715,81.0
True,82,green,incongruent,파랑,green,ORvIk1xRWIQmKuLVe6GXNouvAXx2,1136036.1000000238,stroop,,False,incongruent,"{'text': '파랑', 'letterColor': 'green', 'userColor': 'green'}",False,857.8999999761581,1136894.0,82.0
True,83,green,neutral,가방,green,ORvIk1xRWIQmKuLVe6GXNouvAXx2,1137513.0,stroop,,False,neutral,"{'text': '가방', 'letterColor': 'green', 'userColor': 'green'}",False,1012.9000000953674,1138525.9000000954,83.0
True,84,yellow,incongruent,초록,yellow,ORvIk1xRWIQmKuLVe6GXNouvAXx2,1139138.5,stroop,,False,incongruent,"{'text': '초록', 'letterColor': 'yellow', 'userColor': 'yellow'}",False,920.100000023842,1140058.6000000238,84.0
True,85,red,incongruent,노랑,red,ORvIk1xRWIQmKuLVe6GXNouvAXx2,1140679.7000000477,stroop,,False,incongruent,"{'text': '노랑', 'letterColor': 'red', 'userColor': 'red'}",False,1367.100000023842,1142046.8000000715,85.0
True,86,red,congruent,빨강,red,ORvIk1xRWIQmKuLVe6GXNouvAXx2,1142663.7000000477,stroop,,False,congruent,"{'text': '빨강', 'letterColor': 'red', 'userColor': 'red'}",False,570.7999999523163,1143234.5,86.0
True,87,yellow,congruent,노랑,yellow,ORvIk1xRWIQmKuLVe6GXNouvAXx2,1143849.4000000954,stroop,,False,congruent,"{'text': '노랑', 'letterColor': 'yellow', 'userColor': 'yellow'}",False,771.5,1144620.9000000954,87.0
True,88,blue,neutral,학교,blue,ORvIk1xRWIQmKuLVe6GXNouvAXx2,1145248.1000000238,stroop,,False,neutral,"{'text': '학교', 'letterColor': 'blue', 'userColor': 'blue'}",False,1498.3000000715256,1146746.4000000954,88.0
True,89,green,neutral,학교,green,ORvIk1xRWIQmKuLVe6GXNouvAXx2,1147370.0,stroop,,False,neutral,"{'text': '학교', 'letterColor': 'green', 'userColor': 'green'}",False,1037.7000000476835,1148407.7000000477,89.0
True,90,blue,incongruent,노랑,blue,ORvIk1xRWIQmKuLVe6GXNouvAXx2,1149031.6000000238,stroop,,False,incongruent,"{'text': '노랑', 'letterColor': 'blue', 'userColor': 'blue'}",False,881.2000000476837,1149912.8000000715,90.0
True,91,blue,congruent,파랑,blue,ORvIk1xRWIQmKuLVe6GXNouvAXx2,1150534.4000000954,stroop,,False,congruent,"{'text': '파랑', 'letterColor': 'blue', 'userColor': 'blue'}",False,392.0,1150926.4000000954,91.0
True,93,yellow,neutral,가방,yellow,ORvIk1xRWIQmKuLVe6GXNouvAXx2,1153150.5,stroop,,False,neutral,"{'text': '가방', 'letterColor': 'yellow', 'userColor': 'yellow'}",False,1734.3000000715256,1154884.8000000715,93.0
True,94,yellow,congruent,노랑,yellow,ORvIk1xRWIQmKuLVe6GXNouvAXx2,1155502.1000000238,stroop,,False,congruent,"{'text': '노랑', 'letterColor': 'yellow', 'userColor': 'yellow'}",False,589.5,1156091.6000000238,94.0
True,96,blue,incongruent,초록,blue,ORvIk1xRWIQmKuLVe6GXNouvAXx2,1159581.7000000477,stroop,,False,incongruent,"{'text': '초록', 'letterColor': 'blue', 'userColor': 'blue'}",False,2543.100000023842,1162124.8000000715,96.0
True,97,blue,congruent,파랑,blue,ORvIk1xRWIQmKuLVe6GXNouvAXx2,1162748.7000000477,stroop,,False,congruent,"{'text': '파랑', 'letterColor': 'blue', 'userColor': 'blue'}",False,1322.600000023842,1164071.3000000715,97.0
True,98,blue,incongruent,노랑,blue,ORvIk1xRWIQmKuLVe6GXNouvAXx2,1164699.6000000238,stroop,,False,incongruent,"{'text': '노랑', 'letterColor': 'blue', 'userColor': 'blue'}",False,644.2000000476837,1165343.8000000715,98.0
True,99,yellow,incongruent,빨강,yellow,ORvIk1xRWIQmKuLVe6GXNouvAXx2,1165966.9000000954,stroop,,False,incongruent,"{'text': '빨강', 'letterColor': 'yellow', 'userColor': 'yellow'}",False,1411.5,1167378.4000000954,99.0
True,100,red,neutral,가방,red,ORvIk1xRWIQmKuLVe6GXNouvAXx2,1168000.3000000715,stroop,,False,neutral,"{'text': '가방', 'letterColor': 'red', 'userColor': 'red'}",False,2102.1999999284744,1170102.5,100.0
True,101,green,neutral,학교,green,ORvIk1xRWIQmKuLVe6GXNouvAXx2,1170730.6000000238,stroop,,False,neutral,"{'text': '학교', 'letterColor': 'green', 'userColor': 'green'}",False,739.8999999761581,1171470.5,101.0
True,102,yellow,congruent,노랑,yellow,ORvIk1xRWIQmKuLVe6GXNouvAXx2,1172100.1000000238,stroop,,False,congruent,"{'text': '노랑', 'letterColor': 'yellow', 'userColor': 'yellow'}",False,1021.0,1173121.1000000238,102.0
True,103,yellow,neutral,학교,yellow,ORvIk1xRWIQmKuLVe6GXNouvAXx2,1173752.1000000238,stroop,,False,neutral,"{'text': '학교', 'letterColor': 'yellow', 'userColor': 'yellow'}",False,518.3000000715256,1174270.4000000954,103.0
True,104,blue,congruent,파랑,blue,ORvIk1xRWIQmKuLVe6GXNouvAXx2,1174883.4000000954,stroop,,False,congruent,"{'text': '파랑', 'letterColor': 'blue', 'userColor': 'blue'}",False,880.1999999284744,1175763.6000000238,104.0
True,105,green,congruent,초록,green,ORvIk1xRWIQmKuLVe6GXNouvAXx2,1176382.9000000954,stroop,,False,congruent,"{'text': '초록', 'letterColor': 'green', 'userColor': 'green'}",False,631.6999999284744,1177014.6000000238,105.0
True,106,green,neutral,가방,green,ORvIk1xRWIQmKuLVe6GXNouvAXx2,1177641.4000000954,stroop,,False,neutral,"{'text': '가방', 'letterColor': 'green', 'userColor': 'green'}",False,672.5,1178313.9000000954,106.0
True,107,blue,neutral,학교,blue,ORvIk1xRWIQmKuLVe6GXNouvAXx2,1178934.4000000954,stroop,,False,neutral,"{'text': '학교', 'letterColor': 'blue', 'userColor': 'blue'}",False,626.3999999761581,1179560.8000000715,107.0
True,0,blue,neutral,학교,blue,80UJMJbCOMgs6YVpsMgXfYTzw6o2,974716.1999999993,stroop,,False,neutral,"{'text': '학교', 'letterColor': 'blue', 'userColor': 'blue'}",False,1266.0999999996277,975982.2999999988,0.0
True,1,red,incongruent,초록,red,80UJMJbCOMgs6YVpsMgXfYTzw6o2,976613.6999999993,stroop,,False,incongruent,"{'text': '초록', 'letterColor': 'red', 'userColor': 'red'}",False,925.3000000007452,977539.0,1.0
True,2,green,incongruent,노랑,green,80UJMJbCOMgs6YVpsMgXfYTzw6o2,978176.7999999988,stroop,,False,incongruent,"{'text': '노랑', 'letterColor': 'green', 'userColor': 'green'}",False,815.0,978991.7999999988,2.0
True,3,green,incongruent,빨강,green,80UJMJbCOMgs6YVpsMgXfYTzw6o2,979625.7999999988,stroop,,False,incongruent,"{'text': '빨강', 'letterColor': 'green', 'userColor': 'green'}",False,778.9000000003725,980404.6999999993,3.0
True,4,red,neutral,가방,red,80UJMJbCOMgs6YVpsMgXfYTzw6o2,981030.4000000004,stroop,,False,neutral,"{'text': '가방', 'letterColor': 'red', 'userColor': 'red'}",False,861.7999999988824,981892.1999999993,4.0
True,5,yellow,congruent,노랑,yellow,80UJMJbCOMgs6YVpsMgXfYTzw6o2,982513.1999999993,stroop,,False,congruent,"{'text': '노랑', 'letterColor': 'yellow', 'userColor': 'yellow'}",False,912.8000000007452,983426.0,5.0
True,6,green,neutral,학교,green,80UJMJbCOMgs6YVpsMgXfYTzw6o2,984066.6999999993,stroop,,False,neutral,"{'text': '학교', 'letterColor': 'green', 'userColor': 'green'}",False,847.3000000007451,984914.0,6.0
True,7,red,incongruent,노랑,red,80UJMJbCOMgs6YVpsMgXfYTzw6o2,985558.4000000004,stroop,,False,incongruent,"{'text': '노랑', 'letterColor': 'red', 'userColor': 'red'}",False,868.8999999985099,986427.2999999988,7.0
True,8,red,congruent,빨강,red,80UJMJbCOMgs6YVpsMgXfYTzw6o2,987071.5999999996,stroop,,False,congruent,"{'text': '빨강', 'letterColor': 'red', 'userColor': 'red'}",False,701.5999999996275,987773.1999999993,8.0
True,9,blue,congruent,파랑,blue,80UJMJbCOMgs6YVpsMgXfYTzw6o2,988411.5,stroop,,False,congruent,"{'text': '파랑', 'letterColor': 'blue', 'userColor': 'blue'}",False,830.0,989241.5,9.0
True,10,green,congruent,초록,green,80UJMJbCOMgs6YVpsMgXfYTzw6o2,989900.9000000004,stroop,,False,congruent,"{'text': '초록', 'letterColor': 'green', 'userColor': 'green'}",False,726.5999999996275,990627.5,10.0
True,11,green,incongruent,파랑,green,80UJMJbCOMgs6YVpsMgXfYTzw6o2,991270.7999999988,stroop,,False,incongruent,"{'text': '파랑', 'letterColor': 'green', 'userColor': 'green'}",False,732.0,992002.7999999988,11.0
True,12,yellow,incongruent,빨강,yellow,80UJMJbCOMgs6YVpsMgXfYTzw6o2,992650.9000000004,stroop,,False,incongruent,"{'text': '빨강', 'letterColor': 'yellow', 'userColor': 'yellow'}",False,838.1999999992549,993489.0999999996,12.0
True,13,yellow,congruent,노랑,yellow,80UJMJbCOMgs6YVpsMgXfYTzw6o2,994126.6999999993,stroop,,False,congruent,"{'text': '노랑', 'letterColor': 'yellow', 'userColor': 'yellow'}",False,801.2000000011176,994927.9000000004,13.0
True,14,blue,incongruent,노랑,blue,80UJMJbCOMgs6YVpsMgXfYTzw6o2,995556.2999999988,stroop,,False,incongruent,"{'text': '노랑', 'letterColor': 'blue', 'userColor': 'blue'}",False,721.7000000011176,996278.0,14.0
True,15,green,neutral,기차,green,80UJMJbCOMgs6YVpsMgXfYTzw6o2,996921.5999999996,stroop,,False,neutral,"{'text': '기차', 'letterColor': 'green', 'userColor': 'green'}",False,766.0,997687.5999999996,15.0
True,16,red,congruent,빨강,red,80UJMJbCOMgs6YVpsMgXfYTzw6o2,998333.6999999993,stroop,,False,congruent,"{'text': '빨강', 'letterColor': 'red', 'userColor': 'red'}",False,754.4000000003725,999088.0999999996,16.0
True,17,red,neutral,가방,red,80UJMJbCOMgs6YVpsMgXfYTzw6o2,999722.5999999996,stroop,,False,neutral,"{'text': '가방', 'letterColor': 'red', 'userColor': 'red'}",False,638.3000000007451,1000360.9000000004,17.0
True,18,green,neutral,기차,green,80UJMJbCOMgs6YVpsMgXfYTzw6o2,1001004.0,stroop,,False,neutral,"{'text': '기차', 'letterColor': 'green', 'userColor': 'green'}",False,597.1999999992549,1001601.1999999993,18.0
True,19,yellow,incongruent,초록,yellow,80UJMJbCOMgs6YVpsMgXfYTzw6o2,1002239.6999999993,stroop,,False,incongruent,"{'text': '초록', 'letterColor': 'yellow', 'userColor': 'yellow'}",False,839.8000000007451,1003079.5,19.0
True,20,yellow,congruent,노랑,yellow,80UJMJbCOMgs6YVpsMgXfYTzw6o2,1003709.1999999993,stroop,,False,congruent,"{'text': '노랑', 'letterColor': 'yellow', 'userColor': 'yellow'}",False,861.8000000007451,1004571.0,20.0
True,21,red,neutral,기차,red,80UJMJbCOMgs6YVpsMgXfYTzw6o2,1005199.5,stroop,,False,neutral,"{'text': '기차', 'letterColor': 'red', 'userColor': 'red'}",False,801.7999999988824,1006001.2999999988,21.0
True,22,blue,neutral,학교,blue,80UJMJbCOMgs6YVpsMgXfYTzw6o2,1006620.0999999996,stroop,,False,neutral,"{'text': '학교', 'letterColor': 'blue', 'userColor': 'blue'}",False,835.5999999996275,1007455.6999999993,22.0
True,23,red,congruent,빨강,red,80UJMJbCOMgs6YVpsMgXfYTzw6o2,1008087.9000000004,stroop,,False,congruent,"{'text': '빨강', 'letterColor': 'red', 'userColor': 'red'}",False,844.0999999996275,1008932.0,23.0
True,24,yellow,neutral,학교,yellow,80UJMJbCOMgs6YVpsMgXfYTzw6o2,1009567.4000000004,stroop,,False,neutral,"{'text': '학교', 'letterColor': 'yellow', 'userColor': 'yellow'}",False,720.0999999996275,1010287.5,24.0
True,25,red,neutral,기차,red,80UJMJbCOMgs6YVpsMgXfYTzw6o2,1010915.6999999993,stroop,,False,neutral,"{'text': '기차', 'letterColor': 'red', 'userColor': 'red'}",False,747.9000000003725,1011663.5999999996,25.0
True,26,green,incongruent,빨강,green,80UJMJbCOMgs6YVpsMgXfYTzw6o2,1012320.9000000004,stroop,,False,incongruent,"{'text': '빨강', 'letterColor': 'green', 'userColor': 'green'}",False,880.5,1013201.4000000004,26.0
True,27,blue,congruent,파랑,blue,80UJMJbCOMgs6YVpsMgXfYTzw6o2,1013831.6999999993,stroop,,False,congruent,"{'text': '파랑', 'letterColor': 'blue', 'userColor': 'blue'}",False,669.5999999996275,1014501.2999999988,27.0
True,28,yellow,neutral,학교,yellow,80UJMJbCOMgs6YVpsMgXfYTzw6o2,1015133.0999999996,stroop,,False,neutral,"{'text': '학교', 'letterColor': 'yellow', 'userColor': 'yellow'}",False,790.8000000007451,1015923.9000000004,28.0
True,29,blue,incongruent,초록,blue,80UJMJbCOMgs6YVpsMgXfYTzw6o2,1016566.4000000004,stroop,,False,incongruent,"{'text': '초록', 'letterColor': 'blue', 'userColor': 'blue'}",False,1035.5,1017601.9000000004,29.0
True,30,blue,congruent,파랑,blue,80UJMJbCOMgs6YVpsMgXfYTzw6o2,1018233.4000000004,stroop,,False,congruent,"{'text': '파랑', 'letterColor': 'blue', 'userColor': 'blue'}",False,636.5,1018869.9000000004,30.0
True,31,blue,incongruent,빨강,blue,80UJMJbCOMgs6YVpsMgXfYTzw6o2,1019502.7999999988,stroop,,False,incongruent,"{'text': '빨강', 'letterColor': 'blue', 'userColor': 'blue'}",False,910.4000000003724,1020413.1999999993,31.0
True,32,yellow,incongruent,초록,yellow,80UJMJbCOMgs6YVpsMgXfYTzw6o2,1021034.0,stroop,,False,incongruent,"{'text': '초록', 'letterColor': 'yellow', 'userColor': 'yellow'}",False,849.4000000003725,1021883.4000000004,32.0
True,33,blue,neutral,기차,blue,80UJMJbCOMgs6YVpsMgXfYTzw6o2,1022528.2999999988,stroop,,False,neutral,"{'text': '기차', 'letterColor': 'blue', 'userColor': 'blue'}",False,799.3000000007451,1023327.5999999996,33.0
True,34,yellow,incongruent,초록,yellow,80UJMJbCOMgs6YVpsMgXfYTzw6o2,1023977.1999999993,stroop,,False,incongruent,"{'text': '초록', 'letterColor': 'yellow', 'userColor': 'yellow'}",False,900.2000000011176,1024877.4000000004,34.0
True,35,yellow,incongruent,파랑,yellow,80UJMJbCOMgs6YVpsMgXfYTzw6o2,1025530.0999999996,stroop,,False,incongruent,"{'text': '파랑', 'letterColor': 'yellow', 'userColor': 'yellow'}",False,742.8000000007451,1026272.9000000004,35.0
True,36,green,neutral,가방,green,80UJMJbCOMgs6YVpsMgXfYTzw6o2,1026927.0999999996,stroop,,False,neutral,"{'text': '가방', 'letterColor': 'green', 'userColor': 'green'}",False,817.8000000007451,1027744.9000000004,36.0
True,37,yellow,incongruent,파랑,yellow,80UJMJbCOMgs6YVpsMgXfYTzw6o2,1028380.7999999988,stroop,,False,incongruent,"{'text': '파랑', 'letterColor': 'yellow', 'userColor': 'yellow'}",False,766.8000000007451,1029147.5999999996,37.0
True,38,red,congruent,빨강,red,80UJMJbCOMgs6YVpsMgXfYTzw6o2,1029764.0999999996,stroop,,False,congruent,"{'text': '빨강', 'letterColor': 'red', 'userColor': 'red'}",False,770.0,1030534.0999999996,38.0
True,39,green,incongruent,파랑,green,80UJMJbCOMgs6YVpsMgXfYTzw6o2,1031175.0,stroop,,False,incongruent,"{'text': '파랑', 'letterColor': 'green', 'userColor': 'green'}",False,754.1999999992549,1031929.1999999993,39.0
True,40,red,neutral,학교,red,80UJMJbCOMgs6YVpsMgXfYTzw6o2,1032543.5999999996,stroop,,False,neutral,"{'text': '학교', 'letterColor': 'red', 'userColor': 'red'}",False,781.0,1033324.5999999996,40.0
True,41,yellow,neutral,기차,yellow,80UJMJbCOMgs6YVpsMgXfYTzw6o2,1033974.7999999988,stroop,,False,neutral,"{'text': '기차', 'letterColor': 'yellow', 'userColor': 'yellow'}",False,716.0,1034690.7999999988,41.0
True,42,yellow,neutral,가방,yellow,80UJMJbCOMgs6YVpsMgXfYTzw6o2,1035340.9000000004,stroop,,False,neutral,"{'text': '가방', 'letterColor': 'yellow', 'userColor': 'yellow'}",False,452.0999999996274,1035793.0,42.0
True,43,yellow,incongruent,빨강,yellow,80UJMJbCOMgs6YVpsMgXfYTzw6o2,1036422.2999999988,stroop,,False,incongruent,"{'text': '빨강', 'letterColor': 'yellow', 'userColor': 'yellow'}",False,427.80000000074506,1036850.0999999996,43.0
True,44,green,neutral,기차,green,80UJMJbCOMgs6YVpsMgXfYTzw6o2,1037491.5999999996,stroop,,False,neutral,"{'text': '기차', 'letterColor': 'green', 'userColor': 'green'}",False,919.8000000007452,1038411.4000000004,44.0
True,45,green,congruent,초록,green,80UJMJbCOMgs6YVpsMgXfYTzw6o2,1039055.9000000004,stroop,,False,congruent,"{'text': '초록', 'letterColor': 'green', 'userColor': 'green'}",False,556.5,1039612.4000000004,45.0
True,46,red,incongruent,파랑,red,80UJMJbCOMgs6YVpsMgXfYTzw6o2,1040254.0999999996,stroop,,False,incongruent,"{'text': '파랑', 'letterColor': 'red', 'userColor': 'red'}",False,1143.800000000745,1041397.9000000004,46.0
True,47,blue,neutral,가방,blue,80UJMJbCOMgs6YVpsMgXfYTzw6o2,1042040.0,stroop,,False,neutral,"{'text': '가방', 'letterColor': 'blue', 'userColor': 'blue'}",False,932.9000000003724,1042972.9000000004,47.0
True,48,yellow,neutral,기차,yellow,80UJMJbCOMgs6YVpsMgXfYTzw6o2,1043608.0999999996,stroop,,False,neutral,"{'text': '기차', 'letterColor': 'yellow', 'userColor': 'yellow'}",False,847.3000000007451,1044455.4000000004,48.0
True,49,blue,neutral,가방,blue,80UJMJbCOMgs6YVpsMgXfYTzw6o2,1045072.9000000004,stroop,,False,neutral,"{'text': '가방', 'letterColor': 'blue', 'userColor': 'blue'}",False,986.5,1046059.4000000004,49.0
True,50,blue,neutral,기차,blue,80UJMJbCOMgs6YVpsMgXfYTzw6o2,1046703.4000000004,stroop,,False,neutral,"{'text': '기차', 'letterColor': 'blue', 'userColor': 'blue'}",False,477.8999999985099,1047181.2999999988,50.0
True,51,red,congruent,빨강,red,80UJMJbCOMgs6YVpsMgXfYTzw6o2,1047806.1999999993,stroop,,False,congruent,"{'text': '빨강', 'letterColor': 'red', 'userColor': 'red'}",False,722.8000000007451,1048529.0,51.0
True,52,red,incongruent,초록,red,80UJMJbCOMgs6YVpsMgXfYTzw6o2,1049167.6999999993,stroop,,False,incongruent,"{'text': '초록', 'letterColor': 'red', 'userColor': 'red'}",False,524.8000000007451,1049692.5,52.0
True,53,yellow,neutral,가방,yellow,80UJMJbCOMgs6YVpsMgXfYTzw6o2,1050335.6999999993,stroop,,False,neutral,"{'text': '가방', 'letterColor': 'yellow', 'userColor': 'yellow'}",False,777.0999999996275,1051112.7999999989,53.0
True,54,red,neutral,기차,red,80UJMJbCOMgs6YVpsMgXfYTzw6o2,1051748.7999999989,stroop,,False,neutral,"{'text': '기차', 'letterColor': 'red', 'userColor': 'red'}",False,1152.7000000011176,1052901.5,54.0
True,55,red,congruent,빨강,red,80UJMJbCOMgs6YVpsMgXfYTzw6o2,1053520.7999999989,stroop,,False,congruent,"{'text': '빨강', 'letterColor': 'red', 'userColor': 'red'}",False,428.5,1053949.2999999989,55.0
True,56,yellow,neutral,기차,yellow,80UJMJbCOMgs6YVpsMgXfYTzw6o2,1054594.9000000004,stroop,,False,neutral,"{'text': '기차', 'letterColor': 'yellow', 'userColor': 'yellow'}",False,798.5999999996275,1055393.5,56.0
True,57,blue,congruent,파랑,blue,80UJMJbCOMgs6YVpsMgXfYTzw6o2,1056024.6999999993,stroop,,False,congruent,"{'text': '파랑', 'letterColor': 'blue', 'userColor': 'blue'}",False,682.9000000003725,1056707.5999999996,57.0
True,58,red,congruent,빨강,red,80UJMJbCOMgs6YVpsMgXfYTzw6o2,1057349.2999999989,stroop,,False,congruent,"{'text': '빨강', 'letterColor': 'red', 'userColor': 'red'}",False,776.3000000007451,1058125.5999999996,58.0
True,59,red,neutral,학교,red,80UJMJbCOMgs6YVpsMgXfYTzw6o2,1058763.7999999989,stroop,,False,neutral,"{'text': '학교', 'letterColor': 'red', 'userColor': 'red'}",False,552.4000000003725,1059316.1999999993,59.0
True,60,blue,incongruent,빨강,blue,80UJMJbCOMgs6YVpsMgXfYTzw6o2,1059962.4000000004,stroop,,False,incongruent,"{'text': '빨강', 'letterColor': 'blue', 'userColor': 'blue'}",False,803.0999999996275,1060765.5,60.0
True,61,red,congruent,빨강,red,80UJMJbCOMgs6YVpsMgXfYTzw6o2,1061405.2999999989,stroop,,False,congruent,"{'text': '빨강', 'letterColor': 'red', 'userColor': 'red'}",False,895.2000000011176,1062300.5,61.0
True,62,yellow,congruent,노랑,yellow,80UJMJbCOMgs6YVpsMgXfYTzw6o2,1062929.2999999989,stroop,,False,congruent,"{'text': '노랑', 'letterColor': 'yellow', 'userColor': 'yellow'}",False,705.0,1063634.2999999989,62.0
True,63,blue,congruent,파랑,blue,80UJMJbCOMgs6YVpsMgXfYTzw6o2,1064277.5,stroop,,False,congruent,"{'text': '파랑', 'letterColor': 'blue', 'userColor': 'blue'}",False,1052.7999999988824,1065330.2999999989,63.0
True,64,red,incongruent,노랑,red,80UJMJbCOMgs6YVpsMgXfYTzw6o2,1065977.4000000004,stroop,,False,incongruent,"{'text': '노랑', 'letterColor': 'red', 'userColor': 'red'}",False,748.0999999996275,1066725.5,64.0
True,65,yellow,incongruent,빨강,yellow,80UJMJbCOMgs6YVpsMgXfYTzw6o2,1067360.7999999989,stroop,,False,incongruent,"{'text': '빨강', 'letterColor': 'yellow', 'userColor': 'yellow'}",False,845.0,1068205.7999999989,65.0
True,66,red,neutral,가방,red,80UJMJbCOMgs6YVpsMgXfYTzw6o2,1068836.5,stroop,,False,neutral,"{'text': '가방', 'letterColor': 'red', 'userColor': 'red'}",False,985.5999999996276,1069822.0999999996,66.0
True,67,green,congruent,초록,green,80UJMJbCOMgs6YVpsMgXfYTzw6o2,1070459.0999999996,stroop,,False,congruent,"{'text': '초록', 'letterColor': 'green', 'userColor': 'green'}",False,653.5999999996275,1071112.6999999993,67.0
True,68,yellow,congruent,노랑,yellow,80UJMJbCOMgs6YVpsMgXfYTzw6o2,1071760.1999999993,stroop,,False,congruent,"{'text': '노랑', 'letterColor': 'yellow', 'userColor': 'yellow'}",False,827.4000000003725,1072587.5999999996,68.0
True,69,green,neutral,학교,green,80UJMJbCOMgs6YVpsMgXfYTzw6o2,1073225.2999999989,stroop,,False,neutral,"{'text': '학교', 'letterColor': 'green', 'userColor': 'green'}",False,758.8000000007451,1073984.0999999996,69.0
True,70,blue,neutral,기차,blue,80UJMJbCOMgs6YVpsMgXfYTzw6o2,1074625.5,stroop,,False,neutral,"{'text': '기차', 'letterColor': 'blue', 'userColor': 'blue'}",False,837.0999999996275,1075462.5999999996,70.0
True,71,green,congruent,초록,green,80UJMJbCOMgs6YVpsMgXfYTzw6o2,1076090.7999999989,stroop,,False,congruent,"{'text': '초록', 'letterColor': 'green', 'userColor': 'green'}",False,897.3000000007451,1076988.0999999996,71.0
True,72,green,neutral,가방,green,80UJMJbCOMgs6YVpsMgXfYTzw6o2,1077624.0999999996,stroop,,False,neutral,"{'text': '가방', 'letterColor': 'green', 'userColor': 'green'}",False,455.5,1078079.5999999996,72.0
True,73,green,incongruent,빨강,green,80UJMJbCOMgs6YVpsMgXfYTzw6o2,1078713.0999999996,stroop,,False,incongruent,"{'text': '빨강', 'letterColor': 'green', 'userColor': 'green'}",False,426.80000000074506,1079139.9000000004,73.0
True,74,blue,incongruent,노랑,blue,80UJMJbCOMgs6YVpsMgXfYTzw6o2,1079788.5,stroop,,False,incongruent,"{'text': '노랑', 'letterColor': 'blue', 'userColor': 'blue'}",False,903.2999999988824,1080691.7999999989,74.0
True,75,green,incongruent,파랑,green,80UJMJbCOMgs6YVpsMgXfYTzw6o2,1081324.5999999996,stroop,,False,incongruent,"{'text': '파랑', 'letterColor': 'green', 'userColor': 'green'}",False,765.9000000003725,1082090.5,75.0
True,76,green,neutral,학교,green,80UJMJbCOMgs6YVpsMgXfYTzw6o2,1082722.2999999989,stroop,,False,neutral,"{'text': '학교', 'letterColor': 'green', 'userColor': 'green'}",False,472.2000000011176,1083194.5,76.0
True,77,green,congruent,초록,green,80UJMJbCOMgs6YVpsMgXfYTzw6o2,1083838.5,stroop,,False,congruent,"{'text': '초록', 'letterColor': 'green', 'userColor': 'green'}",False,438.5999999996274,1084277.0999999996,77.0
True,78,blue,neutral,가방,blue,80UJMJbCOMgs6YVpsMgXfYTzw6o2,1084921.7999999989,stroop,,False,neutral,"{'text': '가방', 'letterColor': 'blue', 'userColor': 'blue'}",False,634.4000000003725,1085556.1999999993,78.0
True,79,yellow,congruent,노랑,yellow,80UJMJbCOMgs6YVpsMgXfYTzw6o2,1086203.5,stroop,,False,congruent,"{'text': '노랑', 'letterColor': 'yellow', 'userColor': 'yellow'}",False,712.2999999988824,1086915.7999999989,79.0
True,80,blue,congruent,파랑,blue,80UJMJbCOMgs6YVpsMgXfYTzw6o2,1087559.0999999996,stroop,,False,congruent,"{'text': '파랑', 'letterColor': 'blue', 'userColor': 'blue'}",False,614.8000000007451,1088173.9000000004,80.0
True,81,green,incongruent,노랑,green,80UJMJbCOMgs6YVpsMgXfYTzw6o2,1088790.1999999993,stroop,,False,incongruent,"{'text': '노랑', 'letterColor': 'green', 'userColor': 'green'}",False,655.2000000011176,1089445.4000000004,81.0
True,82,red,incongruent,초록,red,80UJMJbCOMgs6YVpsMgXfYTzw6o2,1090069.6999999993,stroop,,False,incongruent,"{'text': '초록', 'letterColor': 'red', 'userColor': 'red'}",False,878.9000000003725,1090948.5999999996,82.0
True,83,green,congruent,초록,green,80UJMJbCOMgs6YVpsMgXfYTzw6o2,1091589.0,stroop,,False,congruent,"{'text': '초록', 'letterColor': 'green', 'userColor': 'green'}",False,532.5999999996275,1092121.5999999996,83.0
True,84,yellow,incongruent,파랑,yellow,80UJMJbCOMgs6YVpsMgXfYTzw6o2,1092752.6999999993,stroop,,False,incongruent,"{'text': '파랑', 'letterColor': 'yellow', 'userColor': 'yellow'}",False,695.9000000003725,1093448.5999999996,84.0
True,85,red,incongruent,파랑,red,80UJMJbCOMgs6YVpsMgXfYTzw6o2,1094065.2999999989,stroop,,False,incongruent,"{'text': '파랑', 'letterColor': 'red', 'userColor': 'red'}",False,908.3000000007452,1094973.5999999996,85.0
True,86,blue,incongruent,초록,blue,80UJMJbCOMgs6YVpsMgXfYTzw6o2,1095615.5999999996,stroop,,False,incongruent,"{'text': '초록', 'letterColor': 'blue', 'userColor': 'blue'}",False,773.8000000007451,1096389.4000000004,86.0
True,87,green,congruent,초록,green,80UJMJbCOMgs6YVpsMgXfYTzw6o2,1097025.1999999993,stroop,,False,congruent,"{'text': '초록', 'letterColor': 'green', 'userColor': 'green'}",False,614.9000000003725,1097640.0999999996,87.0
True,88,yellow,congruent,노랑,yellow,80UJMJbCOMgs6YVpsMgXfYTzw6o2,1098285.0,stroop,,False,congruent,"{'text': '노랑', 'letterColor': 'yellow', 'userColor': 'yellow'}",False,687.9000000003725,1098972.9000000004,88.0
True,89,blue,incongruent,노랑,blue,80UJMJbCOMgs6YVpsMgXfYTzw6o2,1099619.5999999996,stroop,,False,incongruent,"{'text': '노랑', 'letterColor': 'blue', 'userColor': 'blue'}",False,799.8000000007451,1100419.4000000004,89.0
True,90,green,congruent,초록,green,80UJMJbCOMgs6YVpsMgXfYTzw6o2,1101054.5999999996,stroop,,False,congruent,"{'text': '초록', 'letterColor': 'green', 'userColor': 'green'}",False,629.8000000007451,1101684.4000000004,90.0
True,91,red,incongruent,노랑,red,80UJMJbCOMgs6YVpsMgXfYTzw6o2,1102315.4000000004,stroop,,False,incongruent,"{'text': '노랑', 'letterColor': 'red', 'userColor': 'red'}",False,688.5999999996275,1103004.0,91.0
True,92,green,congruent,초록,green,80UJMJbCOMgs6YVpsMgXfYTzw6o2,1103648.0999999996,stroop,,False,congruent,"{'text': '초록', 'letterColor': 'green', 'userColor': 'green'}",False,752.6999999992549,1104400.7999999989,92.0
True,93,red,neutral,학교,red,80UJMJbCOMgs6YVpsMgXfYTzw6o2,1105057.0999999996,stroop,,False,neutral,"{'text': '학교', 'letterColor': 'red', 'userColor': 'red'}",False,800.5999999996275,1105857.6999999993,93.0
True,94,red,congruent,빨강,red,80UJMJbCOMgs6YVpsMgXfYTzw6o2,1106514.2999999989,stroop,,False,congruent,"{'text': '빨강', 'letterColor': 'red', 'userColor': 'red'}",False,644.1000000014901,1107158.4000000004,94.0
True,95,blue,incongruent,초록,blue,80UJMJbCOMgs6YVpsMgXfYTzw6o2,1107794.5999999996,stroop,,False,incongruent,"{'text': '초록', 'letterColor': 'blue', 'userColor': 'blue'}",False,704.5,1108499.0999999996,95.0
True,96,yellow,congruent,노랑,yellow,80UJMJbCOMgs6YVpsMgXfYTzw6o2,1109149.5999999996,stroop,,False,congruent,"{'text': '노랑', 'letterColor': 'yellow', 'userColor': 'yellow'}",False,668.5,1109818.0999999996,96.0
True,97,blue,congruent,파랑,blue,80UJMJbCOMgs6YVpsMgXfYTzw6o2,1110463.0999999996,stroop,,False,congruent,"{'text': '파랑', 'letterColor': 'blue', 'userColor': 'blue'}",False,569.9000000003725,1111033.0,97.0
True,98,blue,incongruent,빨강,blue,80UJMJbCOMgs6YVpsMgXfYTzw6o2,1111662.1999999993,stroop,,False,incongruent,"{'text': '빨강', 'letterColor': 'blue', 'userColor': 'blue'}",False,423.5,1112085.6999999993,98.0
True,99,blue,congruent,파랑,blue,80UJMJbCOMgs6YVpsMgXfYTzw6o2,1112735.4000000004,stroop,,False,congruent,"{'text': '파랑', 'letterColor': 'blue', 'userColor': 'blue'}",False,378.1999999992549,1113113.5999999996,99.0
True,100,blue,neutral,학교,blue,80UJMJbCOMgs6YVpsMgXfYTzw6o2,1113743.5,stroop,,False,neutral,"{'text': '학교', 'letterColor': 'blue', 'userColor': 'blue'}",False,356.5,1114100.0,100.0
True,101,green,neutral,가방,green,80UJMJbCOMgs6YVpsMgXfYTzw6o2,1114744.6999999993,stroop,,False,neutral,"{'text': '가방', 'letterColor': 'green', 'userColor': 'green'}",False,703.5999999996275,1115448.2999999989,101.0
True,102,yellow,neutral,학교,yellow,80UJMJbCOMgs6YVpsMgXfYTzw6o2,1116078.7999999989,stroop,,False,neutral,"{'text': '학교', 'letterColor': 'yellow', 'userColor': 'yellow'}",False,801.0,1116879.7999999989,102.0
True,103,green,incongruent,노랑,green,80UJMJbCOMgs6YVpsMgXfYTzw6o2,1117510.9000000004,stroop,,False,incongruent,"{'text': '노랑', 'letterColor': 'green', 'userColor': 'green'}",False,678.6999999992549,1118189.5999999996,103.0
True,104,red,incongruent,파랑,red,80UJMJbCOMgs6YVpsMgXfYTzw6o2,1118824.0999999996,stroop,,False,incongruent,"{'text': '파랑', 'letterColor': 'red', 'userColor': 'red'}",False,689.5,1119513.5999999996,104.0
True,105,yellow,congruent,노랑,yellow,80UJMJbCOMgs6YVpsMgXfYTzw6o2,1120160.4000000004,stroop,,False,congruent,"{'text': '노랑', 'letterColor': 'yellow', 'userColor': 'yellow'}",False,644.0999999996275,1120804.5,105.0
True,106,blue,congruent,파랑,blue,80UJMJbCOMgs6YVpsMgXfYTzw6o2,1121442.0999999996,stroop,,False,congruent,"{'text': '파랑', 'letterColor': 'blue', 'userColor': 'blue'}",False,581.0,1122023.0999999996,106.0
True,107,yellow,neutral,가방,yellow,80UJMJbCOMgs6YVpsMgXfYTzw6o2,1122657.7999999989,stroop,,False,neutral,"{'text': '가방', 'letterColor': 'yellow', 'userColor': 'yellow'}",False,953.10000000149,1123610.9000000004,107.0
True,0,yellow,incongruent,빨강,yellow,rUuJv5gl7dWVo7UPQWMx4bohxhK2,538103.2999999999,stroop,,False,incongruent,"{'text': '빨강', 'letterColor': 'yellow', 'userColor': 'yellow'}",False,1619.2000000000698,539722.5,0.0
True,1,green,incongruent,파랑,green,rUuJv5gl7dWVo7UPQWMx4bohxhK2,540348.5,stroop,,False,incongruent,"{'text': '파랑', 'letterColor': 'green', 'userColor': 'green'}",False,1151.0,541499.5,1.0
True,2,green,congruent,초록,green,rUuJv5gl7dWVo7UPQWMx4bohxhK2,542129.6,stroop,,False,congruent,"{'text': '초록', 'letterColor': 'green', 'userColor': 'green'}",False,864.1999999999534,542993.7999999999,2.0
True,3,yellow,incongruent,초록,yellow,rUuJv5gl7dWVo7UPQWMx4bohxhK2,543612.7,stroop,,False,incongruent,"{'text': '초록', 'letterColor': 'yellow', 'userColor': 'yellow'}",False,1227.4000000000233,544840.1,3.0
True,4,green,incongruent,빨강,green,rUuJv5gl7dWVo7UPQWMx4bohxhK2,545449.7999999999,stroop,,False,incongruent,"{'text': '빨강', 'letterColor': 'green', 'userColor': 'green'}",False,2514.0,547963.7999999999,4.0
True,5,red,neutral,가방,red,rUuJv5gl7dWVo7UPQWMx4bohxhK2,548589.0,stroop,,False,neutral,"{'text': '가방', 'letterColor': 'red', 'userColor': 'red'}",False,2249.79999999993,550838.7999999999,5.0
True,6,blue,neutral,기차,blue,rUuJv5gl7dWVo7UPQWMx4bohxhK2,551466.7,stroop,,False,neutral,"{'text': '기차', 'letterColor': 'blue', 'userColor': 'blue'}",False,1109.0,552575.7,6.0
True,7,green,congruent,초록,green,rUuJv5gl7dWVo7UPQWMx4bohxhK2,553201.5,stroop,,False,congruent,"{'text': '초록', 'letterColor': 'green', 'userColor': 'green'}",False,916.2999999999302,554117.7999999999,7.0
True,8,blue,congruent,파랑,blue,rUuJv5gl7dWVo7UPQWMx4bohxhK2,554737.5,stroop,,False,congruent,"{'text': '파랑', 'letterColor': 'blue', 'userColor': 'blue'}",False,1064.0,555801.5,8.0
True,9,blue,incongruent,초록,blue,rUuJv5gl7dWVo7UPQWMx4bohxhK2,556431.0,stroop,,False,incongruent,"{'text': '초록', 'letterColor': 'blue', 'userColor': 'blue'}",False,1208.2999999999302,557639.2999999999,9.0
True,10,blue,incongruent,노랑,blue,rUuJv5gl7dWVo7UPQWMx4bohxhK2,558265.5,stroop,,False,incongruent,"{'text': '노랑', 'letterColor': 'blue', 'userColor': 'blue'}",False,1116.4000000000233,559381.9,10.0
True,11,yellow,congruent,노랑,yellow,rUuJv5gl7dWVo7UPQWMx4bohxhK2,560008.7,stroop,,False,congruent,"{'text': '노랑', 'letterColor': 'yellow', 'userColor': 'yellow'}",False,1566.3000000000466,561575.0,11.0
True,12,red,congruent,빨강,red,rUuJv5gl7dWVo7UPQWMx4bohxhK2,562192.9,stroop,,False,congruent,"{'text': '빨강', 'letterColor': 'red', 'userColor': 'red'}",False,1101.5,563294.4,12.0
True,13,yellow,neutral,학교,yellow,rUuJv5gl7dWVo7UPQWMx4bohxhK2,563914.1,stroop,,False,neutral,"{'text': '학교', 'letterColor': 'yellow', 'userColor': 'yellow'}",False,1953.5,565867.6,13.0
True,14,red,congruent,빨강,red,rUuJv5gl7dWVo7UPQWMx4bohxhK2,566506.6,stroop,,False,congruent,"{'text': '빨강', 'letterColor': 'red', 'userColor': 'red'}",False,1217.4000000000233,567724.0,14.0
True,15,green,incongruent,파랑,green,rUuJv5gl7dWVo7UPQWMx4bohxhK2,568339.7,stroop,,False,incongruent,"{'text': '파랑', 'letterColor': 'green', 'userColor': 'green'}",False,1334.0,569673.7,15.0
True,16,green,incongruent,노랑,green,rUuJv5gl7dWVo7UPQWMx4bohxhK2,570303.9,stroop,,False,incongruent,"{'text': '노랑', 'letterColor': 'green', 'userColor': 'green'}",False,1101.6999999999534,571405.6,16.0
True,17,red,incongruent,노랑,red,rUuJv5gl7dWVo7UPQWMx4bohxhK2,572037.2999999999,stroop,,False,incongruent,"{'text': '노랑', 'letterColor': 'red', 'userColor': 'red'}",False,1152.9000000000233,573190.2,17.0
True,18,blue,congruent,파랑,blue,rUuJv5gl7dWVo7UPQWMx4bohxhK2,573801.7999999999,stroop,,False,congruent,"{'text': '파랑', 'letterColor': 'blue', 'userColor': 'blue'}",False,1995.9000000000235,575797.7,18.0
True,19,yellow,incongruent,빨강,yellow,rUuJv5gl7dWVo7UPQWMx4bohxhK2,576418.1,stroop,,False,incongruent,"{'text': '빨강', 'letterColor': 'yellow', 'userColor': 'yellow'}",False,1275.5999999999767,577693.7,19.0
True,20,red,incongruent,노랑,red,rUuJv5gl7dWVo7UPQWMx4bohxhK2,578329.1,stroop,,False,incongruent,"{'text': '노랑', 'letterColor': 'red', 'userColor': 'red'}",False,1634.6999999999534,579963.7999999999,20.0
True,21,green,congruent,초록,green,rUuJv5gl7dWVo7UPQWMx4bohxhK2,580581.4,stroop,,False,congruent,"{'text': '초록', 'letterColor': 'green', 'userColor': 'green'}",False,926.5999999999768,581508.0,21.0
True,22,blue,neutral,가방,blue,rUuJv5gl7dWVo7UPQWMx4bohxhK2,582120.6,stroop,,False,neutral,"{'text': '가방', 'letterColor': 'blue', 'userColor': 'blue'}",False,1123.0999999999767,583243.7,22.0
True,23,yellow,congruent,노랑,yellow,rUuJv5gl7dWVo7UPQWMx4bohxhK2,583865.1,stroop,,False,congruent,"{'text': '노랑', 'letterColor': 'yellow', 'userColor': 'yellow'}",False,954.5999999999768,584819.7,23.0
True,24,green,neutral,가방,green,rUuJv5gl7dWVo7UPQWMx4bohxhK2,585433.7999999999,stroop,,False,neutral,"{'text': '가방', 'letterColor': 'green', 'userColor': 'green'}",False,901.9000000000232,586335.7,24.0
True,25,red,incongruent,초록,red,rUuJv5gl7dWVo7UPQWMx4bohxhK2,586951.7999999999,stroop,,False,incongruent,"{'text': '초록', 'letterColor': 'red', 'userColor': 'red'}",False,2764.0,589715.7999999999,25.0
True,26,red,congruent,빨강,red,rUuJv5gl7dWVo7UPQWMx4bohxhK2,590348.2,stroop,,False,congruent,"{'text': '빨강', 'letterColor': 'red', 'userColor': 'red'}",False,869.5,591217.7,26.0
True,27,blue,congruent,파랑,blue,rUuJv5gl7dWVo7UPQWMx4bohxhK2,591848.9,stroop,,False,congruent,"{'text': '파랑', 'letterColor': 'blue', 'userColor': 'blue'}",False,1023.0,592871.9,27.0
True,28,red,congruent,빨강,red,rUuJv5gl7dWVo7UPQWMx4bohxhK2,593514.1,stroop,,False,congruent,"{'text': '빨강', 'letterColor': 'red', 'userColor': 'red'}",False,1628.5,595142.6,28.0
True,29,yellow,incongruent,빨강,yellow,rUuJv5gl7dWVo7UPQWMx4bohxhK2,595777.4,stroop,,False,incongruent,"{'text': '빨강', 'letterColor': 'yellow', 'userColor': 'yellow'}",False,1280.2999999999302,597057.7,29.0
True,30,red,neutral,가방,red,rUuJv5gl7dWVo7UPQWMx4bohxhK2,597675.6,stroop,,False,neutral,"{'text': '가방', 'letterColor': 'red', 'userColor': 'red'}",False,960.1999999999534,598635.7999999999,30.0
True,31,blue,incongruent,초록,blue,rUuJv5gl7dWVo7UPQWMx4bohxhK2,599251.1,stroop,,False,incongruent,"{'text': '초록', 'letterColor': 'blue', 'userColor': 'blue'}",False,980.6999999999534,600231.7999999999,31.0
True,32,red,neutral,기차,red,rUuJv5gl7dWVo7UPQWMx4bohxhK2,600857.5,stroop,,False,neutral,"{'text': '기차', 'letterColor': 'red', 'userColor': 'red'}",False,1050.5,601908.0,32.0
True,33,blue,neutral,기차,blue,rUuJv5gl7dWVo7UPQWMx4bohxhK2,602532.2,stroop,,False,neutral,"{'text': '기차', 'letterColor': 'blue', 'userColor': 'blue'}",False,1385.5,603917.7,33.0
True,34,yellow,congruent,노랑,yellow,rUuJv5gl7dWVo7UPQWMx4bohxhK2,604543.4,stroop,,False,congruent,"{'text': '노랑', 'letterColor': 'yellow', 'userColor': 'yellow'}",False,987.3999999999068,605530.7999999999,34.0
True,35,blue,congruent,파랑,blue,rUuJv5gl7dWVo7UPQWMx4bohxhK2,606153.2999999999,stroop,,False,congruent,"{'text': '파랑', 'letterColor': 'blue', 'userColor': 'blue'}",False,878.3000000000466,607031.6,35.0
True,36,green,neutral,학교,green,rUuJv5gl7dWVo7UPQWMx4bohxhK2,607654.2999999999,stroop,,False,neutral,"{'text': '학교', 'letterColor': 'green', 'userColor': 'green'}",False,1411.5,609065.7999999999,36.0
True,37,red,congruent,빨강,red,rUuJv5gl7dWVo7UPQWMx4bohxhK2,609683.7999999999,stroop,,False,congruent,"{'text': '빨강', 'letterColor': 'red', 'userColor': 'red'}",False,1436.0,611119.7999999999,37.0
True,38,yellow,incongruent,초록,yellow,rUuJv5gl7dWVo7UPQWMx4bohxhK2,611746.5,stroop,,False,incongruent,"{'text': '초록', 'letterColor': 'yellow', 'userColor': 'yellow'}",False,2315.199999999953,614061.7,38.0
True,39,blue,congruent,파랑,blue,rUuJv5gl7dWVo7UPQWMx4bohxhK2,614675.5,stroop,,False,congruent,"{'text': '파랑', 'letterColor': 'blue', 'userColor': 'blue'}",False,1230.7999999999302,615906.2999999999,39.0
True,40,red,incongruent,파랑,red,rUuJv5gl7dWVo7UPQWMx4bohxhK2,616526.2999999999,stroop,,False,incongruent,"{'text': '파랑', 'letterColor': 'red', 'userColor': 'red'}",False,1391.5,617917.7999999999,40.0
True,41,red,incongruent,노랑,red,rUuJv5gl7dWVo7UPQWMx4bohxhK2,618535.4,stroop,,False,incongruent,"{'text': '노랑', 'letterColor': 'red', 'userColor': 'red'}",False,902.5,619437.9,41.0
True,42,green,incongruent,파랑,green,rUuJv5gl7dWVo7UPQWMx4bohxhK2,620060.2999999999,stroop,,False,incongruent,"{'text': '파랑', 'letterColor': 'green', 'userColor': 'green'}",False,755.6000000000931,620815.9,42.0
True,43,green,neutral,학교,green,rUuJv5gl7dWVo7UPQWMx4bohxhK2,621430.5,stroop,,False,neutral,"{'text': '학교', 'letterColor': 'green', 'userColor': 'green'}",False,555.4000000000233,621985.9,43.0
True,44,blue,neutral,가방,blue,rUuJv5gl7dWVo7UPQWMx4bohxhK2,622603.2999999999,stroop,,False,neutral,"{'text': '가방', 'letterColor': 'blue', 'userColor': 'blue'}",False,942.4000000000232,623545.7,44.0
True,45,yellow,incongruent,파랑,yellow,rUuJv5gl7dWVo7UPQWMx4bohxhK2,624166.9,stroop,,False,incongruent,"{'text': '파랑', 'letterColor': 'yellow', 'userColor': 'yellow'}",False,1699.5999999999767,625866.5,45.0
True,46,blue,neutral,학교,blue,rUuJv5gl7dWVo7UPQWMx4bohxhK2,626491.4,stroop,,False,neutral,"{'text': '학교', 'letterColor': 'blue', 'userColor': 'blue'}",False,1017.8999999999068,627509.2999999999,46.0
True,47,red,congruent,빨강,red,rUuJv5gl7dWVo7UPQWMx4bohxhK2,628130.5,stroop,,False,congruent,"{'text': '빨강', 'letterColor': 'red', 'userColor': 'red'}",False,835.4000000000233,628965.9,47.0
True,48,blue,congruent,파랑,blue,rUuJv5gl7dWVo7UPQWMx4bohxhK2,629589.7,stroop,,False,congruent,"{'text': '파랑', 'letterColor': 'blue', 'userColor': 'blue'}",False,1090.0,630679.7,48.0
True,49,blue,incongruent,노랑,blue,rUuJv5gl7dWVo7UPQWMx4bohxhK2,631304.7,stroop,,False,incongruent,"{'text': '노랑', 'letterColor': 'blue', 'userColor': 'blue'}",False,1531.0,632835.7,49.0
True,50,yellow,congruent,노랑,yellow,rUuJv5gl7dWVo7UPQWMx4bohxhK2,633461.7999999999,stroop,,False,congruent,"{'text': '노랑', 'letterColor': 'yellow', 'userColor': 'yellow'}",False,1578.0,635039.7999999999,50.0
True,51,green,neutral,가방,green,rUuJv5gl7dWVo7UPQWMx4bohxhK2,635658.2999999999,stroop,,False,neutral,"{'text': '가방', 'letterColor': 'green', 'userColor': 'green'}",False,1483.4000000000233,637141.7,51.0
True,52,green,neutral,기차,green,rUuJv5gl7dWVo7UPQWMx4bohxhK2,637759.7999999999,stroop,,False,neutral,"{'text': '기차', 'letterColor': 'green', 'userColor': 'green'}",False,1586.6000000000931,639346.4,52.0
True,53,yellow,congruent,노랑,yellow,rUuJv5gl7dWVo7UPQWMx4bohxhK2,639964.2,stroop,,False,congruent,"{'text': '노랑', 'letterColor': 'yellow', 'userColor': 'yellow'}",False,933.5,640897.7,53.0
True,54,blue,congruent,파랑,blue,rUuJv5gl7dWVo7UPQWMx4bohxhK2,641526.6,stroop,,False,congruent,"{'text': '파랑', 'letterColor': 'blue', 'userColor': 'blue'}",False,1055.3000000000466,642581.9,54.0
True,55,yellow,neutral,가방,yellow,rUuJv5gl7dWVo7UPQWMx4bohxhK2,643201.2999999999,stroop,,False,neutral,"{'text': '가방', 'letterColor': 'yellow', 'userColor': 'yellow'}",False,2040.4000000000235,645241.7,55.0
True,56,green,congruent,초록,green,rUuJv5gl7dWVo7UPQWMx4bohxhK2,645867.6,stroop,,False,congruent,"{'text': '초록', 'letterColor': 'green', 'userColor': 'green'}",False,922.5,646790.1,56.0
True,57,yellow,neutral,가방,yellow,rUuJv5gl7dWVo7UPQWMx4bohxhK2,647412.6,stroop,,False,neutral,"{'text': '가방', 'letterColor': 'yellow', 'userColor': 'yellow'}",False,1957.6999999999528,649370.2999999999,57.0
True,58,green,incongruent,빨강,green,rUuJv5gl7dWVo7UPQWMx4bohxhK2,649997.7,stroop,,False,incongruent,"{'text': '빨강', 'letterColor': 'green', 'userColor': 'green'}",False,2374.20000000007,652371.9,58.0
True,59,yellow,neutral,가방,yellow,rUuJv5gl7dWVo7UPQWMx4bohxhK2,652993.9,stroop,,False,neutral,"{'text': '가방', 'letterColor': 'yellow', 'userColor': 'yellow'}",False,1494.0999999999767,654488.0,59.0
True,60,green,neutral,가방,green,rUuJv5gl7dWVo7UPQWMx4bohxhK2,655107.0,stroop,,False,neutral,"{'text': '가방', 'letterColor': 'green', 'userColor': 'green'}",False,1186.7999999999302,656293.7999999999,60.0
True,61,red,neutral,기차,red,rUuJv5gl7dWVo7UPQWMx4bohxhK2,656916.2,stroop,,False,neutral,"{'text': '기차', 'letterColor': 'red', 'userColor': 'red'}",False,2291.400000000024,659207.6,61.0
True,62,green,congruent,초록,green,rUuJv5gl7dWVo7UPQWMx4bohxhK2,659827.9,stroop,,False,congruent,"{'text': '초록', 'letterColor': 'green', 'userColor': 'green'}",False,1158.0,660985.9,62.0
True,63,yellow,neutral,기차,yellow,rUuJv5gl7dWVo7UPQWMx4bohxhK2,661612.7,stroop,,False,neutral,"{'text': '기차', 'letterColor': 'yellow', 'userColor': 'yellow'}",False,1944.0,663556.7,63.0
True,64,blue,congruent,파랑,blue,rUuJv5gl7dWVo7UPQWMx4bohxhK2,664170.7999999999,stroop,,False,congruent,"{'text': '파랑', 'letterColor': 'blue', 'userColor': 'blue'}",False,680.0,664850.7999999999,64.0
True,65,green,congruent,초록,green,rUuJv5gl7dWVo7UPQWMx4bohxhK2,665473.0,stroop,,False,congruent,"{'text': '초록', 'letterColor': 'green', 'userColor': 'green'}",False,676.4000000000233,666149.4,65.0
True,66,red,congruent,빨강,red,rUuJv5gl7dWVo7UPQWMx4bohxhK2,666770.5,stroop,,False,congruent,"{'text': '빨강', 'letterColor': 'red', 'userColor': 'red'}",False,719.9000000000233,667490.4,66.0
True,67,yellow,congruent,노랑,yellow,rUuJv5gl7dWVo7UPQWMx4bohxhK2,668107.0,stroop,,False,congruent,"{'text': '노랑', 'letterColor': 'yellow', 'userColor': 'yellow'}",False,903.0999999999768,669010.1,67.0
True,69,green,incongruent,빨강,green,rUuJv5gl7dWVo7UPQWMx4bohxhK2,673259.6,stroop,,False,incongruent,"{'text': '빨강', 'letterColor': 'green', 'userColor': 'green'}",False,1080.5,674340.1,69.0
True,70,yellow,congruent,노랑,yellow,rUuJv5gl7dWVo7UPQWMx4bohxhK2,674957.6,stroop,,False,congruent,"{'text': '노랑', 'letterColor': 'yellow', 'userColor': 'yellow'}",False,1260.3000000000466,676217.9,70.0
True,73,yellow,neutral,기차,yellow,rUuJv5gl7dWVo7UPQWMx4bohxhK2,682010.6,stroop,,False,neutral,"{'text': '기차', 'letterColor': 'yellow', 'userColor': 'yellow'}",False,1646.5,683657.1,73.0
True,74,green,neutral,학교,green,rUuJv5gl7dWVo7UPQWMx4bohxhK2,684291.9,stroop,,False,neutral,"{'text': '학교', 'letterColor': 'green', 'userColor': 'green'}",False,852.1999999999534,685144.1,74.0
True,75,blue,neutral,학교,blue,rUuJv5gl7dWVo7UPQWMx4bohxhK2,685769.9,stroop,,False,neutral,"{'text': '학교', 'letterColor': 'blue', 'userColor': 'blue'}",False,904.2999999999302,686674.2,75.0
True,76,blue,incongruent,빨강,blue,rUuJv5gl7dWVo7UPQWMx4bohxhK2,687294.9,stroop,,False,incongruent,"{'text': '빨강', 'letterColor': 'blue', 'userColor': 'blue'}",False,667.1999999999534,687962.1,76.0
True,77,blue,incongruent,초록,blue,rUuJv5gl7dWVo7UPQWMx4bohxhK2,688577.7999999999,stroop,,False,incongruent,"{'text': '초록', 'letterColor': 'blue', 'userColor': 'blue'}",False,1222.6000000000931,689800.4,77.0
True,78,yellow,neutral,학교,yellow,rUuJv5gl7dWVo7UPQWMx4bohxhK2,690423.9,stroop,,False,neutral,"{'text': '학교', 'letterColor': 'yellow', 'userColor': 'yellow'}",False,1708.0,692131.9,78.0
True,79,green,incongruent,노랑,green,rUuJv5gl7dWVo7UPQWMx4bohxhK2,692747.9,stroop,,False,incongruent,"{'text': '노랑', 'letterColor': 'green', 'userColor': 'green'}",False,1071.3999999999069,693819.2999999999,79.0
True,80,yellow,congruent,노랑,yellow,rUuJv5gl7dWVo7UPQWMx4bohxhK2,694442.9,stroop,,False,congruent,"{'text': '노랑', 'letterColor': 'yellow', 'userColor': 'yellow'}",False,1543.1999999999534,695986.1,80.0
True,81,blue,neutral,기차,blue,rUuJv5gl7dWVo7UPQWMx4bohxhK2,696608.5,stroop,,False,neutral,"{'text': '기차', 'letterColor': 'blue', 'userColor': 'blue'}",False,1763.4000000000233,698371.9,81.0
True,82,red,neutral,학교,red,rUuJv5gl7dWVo7UPQWMx4bohxhK2,698992.7,stroop,,False,neutral,"{'text': '학교', 'letterColor': 'red', 'userColor': 'red'}",False,1355.0999999999767,700347.7999999999,82.0
True,83,red,congruent,빨강,red,rUuJv5gl7dWVo7UPQWMx4bohxhK2,700967.2,stroop,,False,congruent,"{'text': '빨강', 'letterColor': 'red', 'userColor': 'red'}",False,700.8000000000466,701668.0,83.0
True,84,red,neutral,학교,red,rUuJv5gl7dWVo7UPQWMx4bohxhK2,702296.2,stroop,,False,neutral,"{'text': '학교', 'letterColor': 'red', 'userColor': 'red'}",False,543.8000000000466,702840.0,84.0
True,85,blue,incongruent,노랑,blue,rUuJv5gl7dWVo7UPQWMx4bohxhK2,703465.7,stroop,,False,incongruent,"{'text': '노랑', 'letterColor': 'blue', 'userColor': 'blue'}",False,2072.70000000007,705538.4,85.0
True,86,red,congruent,빨강,red,rUuJv5gl7dWVo7UPQWMx4bohxhK2,706159.2,stroop,,False,congruent,"{'text': '빨강', 'letterColor': 'red', 'userColor': 'red'}",False,947.5,707106.7,86.0
True,87,yellow,incongruent,파랑,yellow,rUuJv5gl7dWVo7UPQWMx4bohxhK2,707729.9,stroop,,False,incongruent,"{'text': '파랑', 'letterColor': 'yellow', 'userColor': 'yellow'}",False,1781.8999999999069,709511.7999999999,87.0
True,88,green,neutral,기차,green,rUuJv5gl7dWVo7UPQWMx4bohxhK2,710135.4,stroop,,False,neutral,"{'text': '기차', 'letterColor': 'green', 'userColor': 'green'}",False,1036.3999999999069,711171.7999999999,88.0
True,89,green,congruent,초록,green,rUuJv5gl7dWVo7UPQWMx4bohxhK2,711785.6,stroop,,False,congruent,"{'text': '초록', 'letterColor': 'green', 'userColor': 'green'}",False,906.5,712692.1,89.0
True,90,yellow,incongruent,초록,yellow,rUuJv5gl7dWVo7UPQWMx4bohxhK2,713311.7999999999,stroop,,False,incongruent,"{'text': '초록', 'letterColor': 'yellow', 'userColor': 'yellow'}",False,1270.3000000000466,714582.1,90.0
True,91,red,neutral,기차,red,rUuJv5gl7dWVo7UPQWMx4bohxhK2,715203.5,stroop,,False,neutral,"{'text': '기차', 'letterColor': 'red', 'userColor': 'red'}",False,1016.9000000000232,716220.4,91.0
True,92,yellow,congruent,노랑,yellow,rUuJv5gl7dWVo7UPQWMx4bohxhK2,716841.2,stroop,,False,congruent,"{'text': '노랑', 'letterColor': 'yellow', 'userColor': 'yellow'}",False,1488.5999999999767,718329.7999999999,92.0
True,93,yellow,neutral,기차,yellow,rUuJv5gl7dWVo7UPQWMx4bohxhK2,718964.9,stroop,,False,neutral,"{'text': '기차', 'letterColor': 'yellow', 'userColor': 'yellow'}",False,1655.3999999999069,720620.2999999999,93.0
True,94,blue,congruent,파랑,blue,rUuJv5gl7dWVo7UPQWMx4bohxhK2,721233.7,stroop,,False,congruent,"{'text': '파랑', 'letterColor': 'blue', 'userColor': 'blue'}",False,810.2000000000698,722043.9,94.0
True,95,blue,incongruent,빨강,blue,rUuJv5gl7dWVo7UPQWMx4bohxhK2,722656.7999999999,stroop,,False,incongruent,"{'text': '빨강', 'letterColor': 'blue', 'userColor': 'blue'}",False,2147.3000000000466,724804.1,95.0
True,96,red,neutral,학교,red,rUuJv5gl7dWVo7UPQWMx4bohxhK2,725433.1,stroop,,False,neutral,"{'text': '학교', 'letterColor': 'red', 'userColor': 'red'}",False,1897.5999999999767,727330.7,96.0
True,97,green,incongruent,노랑,green,rUuJv5gl7dWVo7UPQWMx4bohxhK2,727942.1,stroop,,False,incongruent,"{'text': '노랑', 'letterColor': 'green', 'userColor': 'green'}",False,2087.5999999999767,730029.7,97.0
True,98,yellow,neutral,학교,yellow,rUuJv5gl7dWVo7UPQWMx4bohxhK2,730660.4,stroop,,False,neutral,"{'text': '학교', 'letterColor': 'yellow', 'userColor': 'yellow'}",False,1496.1999999999534,732156.6,98.0
True,99,blue,neutral,학교,blue,rUuJv5gl7dWVo7UPQWMx4bohxhK2,732775.0,stroop,,False,neutral,"{'text': '학교', 'letterColor': 'blue', 'userColor': 'blue'}",False,1244.7999999999302,734019.7999999999,99.0
True,100,red,neutral,가방,red,rUuJv5gl7dWVo7UPQWMx4bohxhK2,734634.7999999999,stroop,,False,neutral,"{'text': '가방', 'letterColor': 'red', 'userColor': 'red'}",False,1497.0,736131.7999999999,100.0
True,101,red,incongruent,파랑,red,rUuJv5gl7dWVo7UPQWMx4bohxhK2,736748.2,stroop,,False,incongruent,"{'text': '파랑', 'letterColor': 'red', 'userColor': 'red'}",False,1622.2000000000698,738370.4,101.0
True,102,green,congruent,초록,green,rUuJv5gl7dWVo7UPQWMx4bohxhK2,738987.1,stroop,,False,congruent,"{'text': '초록', 'letterColor': 'green', 'userColor': 'green'}",False,935.0,739922.1,102.0
True,103,red,incongruent,초록,red,rUuJv5gl7dWVo7UPQWMx4bohxhK2,740547.7,stroop,,False,incongruent,"{'text': '초록', 'letterColor': 'red', 'userColor': 'red'}",False,1274.5999999999767,741822.2999999999,103.0
True,104,blue,incongruent,빨강,blue,rUuJv5gl7dWVo7UPQWMx4bohxhK2,742453.1,stroop,,False,incongruent,"{'text': '빨강', 'letterColor': 'blue', 'userColor': 'blue'}",False,1169.3000000000466,743622.4,104.0
True,105,green,congruent,초록,green,rUuJv5gl7dWVo7UPQWMx4bohxhK2,744239.7,stroop,,False,congruent,"{'text': '초록', 'letterColor': 'green', 'userColor': 'green'}",False,844.2000000000698,745083.9,105.0
True,106,blue,neutral,가방,blue,rUuJv5gl7dWVo7UPQWMx4bohxhK2,745700.0,stroop,,False,neutral,"{'text': '가방', 'letterColor': 'blue', 'userColor': 'blue'}",False,1602.0,747302.0,106.0
True,107,red,incongruent,파랑,red,rUuJv5gl7dWVo7UPQWMx4bohxhK2,747919.1,stroop,,False,incongruent,"{'text': '파랑', 'letterColor': 'red', 'userColor': 'red'}",False,1199.9000000000233,749119.0,107.0
True,0,yellow,congruent,노랑,yellow,xyAILKfYP2M8GqAai11x6NT7IcP2,840713.1000000001,stroop,,False,congruent,"{'text': '노랑', 'letterColor': 'yellow', 'userColor': 'yellow'}",False,1008.7000000001864,841721.8000000003,0.0
True,1,yellow,incongruent,파랑,yellow,xyAILKfYP2M8GqAai11x6NT7IcP2,842346.3000000003,stroop,,False,incongruent,"{'text': '파랑', 'letterColor': 'yellow', 'userColor': 'yellow'}",False,732.6999999997206,843079.0,1.0
True,2,blue,neutral,가방,blue,xyAILKfYP2M8GqAai11x6NT7IcP2,843712.0,stroop,,False,neutral,"{'text': '가방', 'letterColor': 'blue', 'userColor': 'blue'}",False,757.8000000002794,844469.8000000003,2.0
True,3,blue,congruent,파랑,blue,xyAILKfYP2M8GqAai11x6NT7IcP2,845104.4000000004,stroop,,False,congruent,"{'text': '파랑', 'letterColor': 'blue', 'userColor': 'blue'}",False,829.0,845933.4000000004,3.0
True,4,green,congruent,초록,green,xyAILKfYP2M8GqAai11x6NT7IcP2,846561.0,stroop,,False,congruent,"{'text': '초록', 'letterColor': 'green', 'userColor': 'green'}",False,840.6000000000931,847401.6000000001,4.0
True,5,yellow,congruent,노랑,yellow,xyAILKfYP2M8GqAai11x6NT7IcP2,848027.4000000004,stroop,,False,congruent,"{'text': '노랑', 'letterColor': 'yellow', 'userColor': 'yellow'}",False,862.5,848889.9000000004,5.0
True,6,green,incongruent,노랑,green,xyAILKfYP2M8GqAai11x6NT7IcP2,849526.9000000004,stroop,,False,incongruent,"{'text': '노랑', 'letterColor': 'green', 'userColor': 'green'}",False,1201.6999999997206,850728.6000000001,6.0
True,7,yellow,neutral,가방,yellow,xyAILKfYP2M8GqAai11x6NT7IcP2,851346.8000000003,stroop,,False,neutral,"{'text': '가방', 'letterColor': 'yellow', 'userColor': 'yellow'}",False,1015.2999999998136,852362.1000000001,7.0
True,8,blue,neutral,학교,blue,xyAILKfYP2M8GqAai11x6NT7IcP2,852996.4000000004,stroop,,False,neutral,"{'text': '학교', 'letterColor': 'blue', 'userColor': 'blue'}",False,1033.1999999997206,854029.6000000001,8.0
True,9,green,incongruent,파랑,green,xyAILKfYP2M8GqAai11x6NT7IcP2,854662.8000000003,stroop,,False,incongruent,"{'text': '파랑', 'letterColor': 'green', 'userColor': 'green'}",False,1214.7999999998135,855877.6000000001,9.0
True,10,red,neutral,학교,red,xyAILKfYP2M8GqAai11x6NT7IcP2,856506.5,stroop,,False,neutral,"{'text': '학교', 'letterColor': 'red', 'userColor': 'red'}",False,1198.2000000001865,857704.7000000002,10.0
True,11,green,neutral,학교,green,xyAILKfYP2M8GqAai11x6NT7IcP2,858319.1000000001,stroop,,False,neutral,"{'text': '학교', 'letterColor': 'green', 'userColor': 'green'}",False,884.3999999999069,859203.5,11.0
True,12,yellow,congruent,노랑,yellow,xyAILKfYP2M8GqAai11x6NT7IcP2,859821.8000000003,stroop,,False,congruent,"{'text': '노랑', 'letterColor': 'yellow', 'userColor': 'yellow'}",False,1091.6999999997206,860913.5,12.0
True,13,blue,incongruent,빨강,blue,xyAILKfYP2M8GqAai11x6NT7IcP2,861530.4000000004,stroop,,False,incongruent,"{'text': '빨강', 'letterColor': 'blue', 'userColor': 'blue'}",False,1134.8999999999069,862665.3000000003,13.0
True,14,blue,neutral,학교,blue,xyAILKfYP2M8GqAai11x6NT7IcP2,863302.3000000003,stroop,,False,neutral,"{'text': '학교', 'letterColor': 'blue', 'userColor': 'blue'}",False,968.6999999997206,864271.0,14.0
True,15,yellow,neutral,가방,yellow,xyAILKfYP2M8GqAai11x6NT7IcP2,864905.6000000001,stroop,,False,neutral,"{'text': '가방', 'letterColor': 'yellow', 'userColor': 'yellow'}",False,790.8999999999069,865696.5,15.0
True,16,red,incongruent,노랑,red,xyAILKfYP2M8GqAai11x6NT7IcP2,866328.7000000002,stroop,,False,incongruent,"{'text': '노랑', 'letterColor': 'red', 'userColor': 'red'}",False,1120.7999999998135,867449.5,16.0
True,17,yellow,congruent,노랑,yellow,xyAILKfYP2M8GqAai11x6NT7IcP2,868068.9000000004,stroop,,False,congruent,"{'text': '노랑', 'letterColor': 'yellow', 'userColor': 'yellow'}",False,811.8999999999069,868880.8000000003,17.0
True,18,yellow,neutral,기차,yellow,xyAILKfYP2M8GqAai11x6NT7IcP2,869529.6000000001,stroop,,False,neutral,"{'text': '기차', 'letterColor': 'yellow', 'userColor': 'yellow'}",False,642.8999999999069,870172.5,18.0
True,19,green,congruent,초록,green,xyAILKfYP2M8GqAai11x6NT7IcP2,870815.2000000002,stroop,,False,congruent,"{'text': '초록', 'letterColor': 'green', 'userColor': 'green'}",False,706.1000000000931,871521.3000000003,19.0
True,20,blue,congruent,파랑,blue,xyAILKfYP2M8GqAai11x6NT7IcP2,872161.8000000003,stroop,,False,congruent,"{'text': '파랑', 'letterColor': 'blue', 'userColor': 'blue'}",False,803.3999999999069,872965.2000000002,20.0
True,21,blue,incongruent,초록,blue,xyAILKfYP2M8GqAai11x6NT7IcP2,873597.6000000001,stroop,,False,incongruent,"{'text': '초록', 'letterColor': 'blue', 'userColor': 'blue'}",False,555.8000000002794,874153.4000000004,21.0
True,22,red,incongruent,파랑,red,xyAILKfYP2M8GqAai11x6NT7IcP2,874794.2000000002,stroop,,False,incongruent,"{'text': '파랑', 'letterColor': 'red', 'userColor': 'red'}",False,1042.7999999998135,875837.0,22.0
True,23,yellow,congruent,노랑,yellow,xyAILKfYP2M8GqAai11x6NT7IcP2,876456.0,stroop,,False,congruent,"{'text': '노랑', 'letterColor': 'yellow', 'userColor': 'yellow'}",False,840.8000000002794,877296.8000000003,23.0
True,24,red,incongruent,파랑,red,xyAILKfYP2M8GqAai11x6NT7IcP2,877914.1000000001,stroop,,False,incongruent,"{'text': '파랑', 'letterColor': 'red', 'userColor': 'red'}",False,1183.3000000002794,879097.4000000004,24.0
True,25,green,congruent,초록,green,xyAILKfYP2M8GqAai11x6NT7IcP2,879724.9000000004,stroop,,False,congruent,"{'text': '초록', 'letterColor': 'green', 'userColor': 'green'}",False,1242.2999999998135,880967.2000000002,25.0
True,26,yellow,congruent,노랑,yellow,xyAILKfYP2M8GqAai11x6NT7IcP2,881596.6000000001,stroop,,False,congruent,"{'text': '노랑', 'letterColor': 'yellow', 'userColor': 'yellow'}",False,852.8999999999069,882449.5,26.0
True,27,green,incongruent,파랑,green,xyAILKfYP2M8GqAai11x6NT7IcP2,883083.5,stroop,,False,incongruent,"{'text': '파랑', 'letterColor': 'green', 'userColor': 'green'}",False,1202.0,884285.5,27.0
True,28,green,incongruent,빨강,green,xyAILKfYP2M8GqAai11x6NT7IcP2,884911.2000000002,stroop,,False,incongruent,"{'text': '빨강', 'letterColor': 'green', 'userColor': 'green'}",False,909.3999999999068,885820.6000000001,28.0
True,29,blue,congruent,파랑,blue,xyAILKfYP2M8GqAai11x6NT7IcP2,886462.8000000003,stroop,,False,congruent,"{'text': '파랑', 'letterColor': 'blue', 'userColor': 'blue'}",False,861.6999999997206,887324.5,29.0
True,30,yellow,incongruent,빨강,yellow,xyAILKfYP2M8GqAai11x6NT7IcP2,887949.4000000004,stroop,,False,incongruent,"{'text': '빨강', 'letterColor': 'yellow', 'userColor': 'yellow'}",False,673.2999999998137,888622.7000000002,30.0
True,31,yellow,incongruent,파랑,yellow,xyAILKfYP2M8GqAai11x6NT7IcP2,889245.3000000003,stroop,,False,incongruent,"{'text': '파랑', 'letterColor': 'yellow', 'userColor': 'yellow'}",False,669.3999999999069,889914.7000000002,31.0
True,32,red,congruent,빨강,red,xyAILKfYP2M8GqAai11x6NT7IcP2,890547.1000000001,stroop,,False,congruent,"{'text': '빨강', 'letterColor': 'red', 'userColor': 'red'}",False,1064.0,891611.1000000001,32.0
True,33,yellow,incongruent,빨강,yellow,xyAILKfYP2M8GqAai11x6NT7IcP2,892227.0,stroop,,False,incongruent,"{'text': '빨강', 'letterColor': 'yellow', 'userColor': 'yellow'}",False,821.2000000001863,893048.2000000002,33.0
True,34,yellow,neutral,학교,yellow,xyAILKfYP2M8GqAai11x6NT7IcP2,893682.1000000001,stroop,,False,neutral,"{'text': '학교', 'letterColor': 'yellow', 'userColor': 'yellow'}",False,682.5,894364.6000000001,34.0
True,35,blue,neutral,가방,blue,xyAILKfYP2M8GqAai11x6NT7IcP2,894986.0,stroop,,False,neutral,"{'text': '가방', 'letterColor': 'blue', 'userColor': 'blue'}",False,1468.5,896454.5,35.0
True,36,red,congruent,빨강,red,xyAILKfYP2M8GqAai11x6NT7IcP2,897088.1000000001,stroop,,False,congruent,"{'text': '빨강', 'letterColor': 'red', 'userColor': 'red'}",False,1406.7000000001865,898494.8000000003,36.0
True,37,green,incongruent,빨강,green,xyAILKfYP2M8GqAai11x6NT7IcP2,899123.9000000004,stroop,,False,incongruent,"{'text': '빨강', 'letterColor': 'green', 'userColor': 'green'}",False,1228.6999999997206,900352.6000000001,37.0
True,38,yellow,incongruent,초록,yellow,xyAILKfYP2M8GqAai11x6NT7IcP2,900974.0,stroop,,False,incongruent,"{'text': '초록', 'letterColor': 'yellow', 'userColor': 'yellow'}",False,1260.7000000001865,902234.7000000002,38.0
True,39,red,congruent,빨강,red,xyAILKfYP2M8GqAai11x6NT7IcP2,902848.9000000004,stroop,,False,congruent,"{'text': '빨강', 'letterColor': 'red', 'userColor': 'red'}",False,1004.5999999996276,903853.5,39.0
True,40,green,congruent,초록,green,xyAILKfYP2M8GqAai11x6NT7IcP2,904483.7000000002,stroop,,False,congruent,"{'text': '초록', 'letterColor': 'green', 'userColor': 'green'}",False,1291.7999999998135,905775.5,40.0
True,41,blue,neutral,기차,blue,xyAILKfYP2M8GqAai11x6NT7IcP2,906397.8000000004,stroop,,False,neutral,"{'text': '기차', 'letterColor': 'blue', 'userColor': 'blue'}",False,1093.1999999997206,907491.0,41.0
True,42,red,congruent,빨강,red,xyAILKfYP2M8GqAai11x6NT7IcP2,908121.7000000002,stroop,,False,congruent,"{'text': '빨강', 'letterColor': 'red', 'userColor': 'red'}",False,1115.7999999998135,909237.5,42.0
True,43,green,incongruent,노랑,green,xyAILKfYP2M8GqAai11x6NT7IcP2,909874.5,stroop,,False,incongruent,"{'text': '노랑', 'letterColor': 'green', 'userColor': 'green'}",False,1314.7000000001865,911189.2000000002,43.0
True,44,green,congruent,초록,green,xyAILKfYP2M8GqAai11x6NT7IcP2,911816.3000000004,stroop,,False,congruent,"{'text': '초록', 'letterColor': 'green', 'userColor': 'green'}",False,783.6999999997206,912600.0,44.0
True,45,green,neutral,기차,green,xyAILKfYP2M8GqAai11x6NT7IcP2,913234.9000000004,stroop,,False,neutral,"{'text': '기차', 'letterColor': 'green', 'userColor': 'green'}",False,823.5,914058.4000000004,45.0
True,46,red,incongruent,노랑,red,xyAILKfYP2M8GqAai11x6NT7IcP2,914680.1,stroop,,False,incongruent,"{'text': '노랑', 'letterColor': 'red', 'userColor': 'red'}",False,993.8000000002794,915673.9000000004,46.0
True,47,red,neutral,학교,red,xyAILKfYP2M8GqAai11x6NT7IcP2,916314.7000000002,stroop,,False,neutral,"{'text': '학교', 'letterColor': 'red', 'userColor': 'red'}",False,671.2000000001863,916985.9000000004,47.0
True,48,red,incongruent,초록,red,xyAILKfYP2M8GqAai11x6NT7IcP2,917617.4000000004,stroop,,False,incongruent,"{'text': '초록', 'letterColor': 'red', 'userColor': 'red'}",False,620.0999999996275,918237.5,48.0
True,49,blue,congruent,파랑,blue,xyAILKfYP2M8GqAai11x6NT7IcP2,918856.7000000002,stroop,,False,congruent,"{'text': '파랑', 'letterColor': 'blue', 'userColor': 'blue'}",False,725.0,919581.7000000002,49.0
True,50,yellow,congruent,노랑,yellow,xyAILKfYP2M8GqAai11x6NT7IcP2,920214.4000000004,stroop,,False,congruent,"{'text': '노랑', 'letterColor': 'yellow', 'userColor': 'yellow'}",False,903.2999999998136,921117.7000000002,50.0
True,51,blue,incongruent,노랑,blue,xyAILKfYP2M8GqAai11x6NT7IcP2,921758.4000000004,stroop,,False,incongruent,"{'text': '노랑', 'letterColor': 'blue', 'userColor': 'blue'}",False,1317.2999999998135,923075.7000000002,51.0
True,52,red,incongruent,파랑,red,xyAILKfYP2M8GqAai11x6NT7IcP2,923691.3000000004,stroop,,False,incongruent,"{'text': '파랑', 'letterColor': 'red', 'userColor': 'red'}",False,1013.8999999999068,924705.2000000002,52.0
True,53,red,neutral,기차,red,xyAILKfYP2M8GqAai11x6NT7IcP2,925333.2000000002,stroop,,False,neutral,"{'text': '기차', 'letterColor': 'red', 'userColor': 'red'}",False,703.2000000001863,926036.4000000004,53.0
True,54,green,congruent,초록,green,xyAILKfYP2M8GqAai11x6NT7IcP2,926668.6,stroop,,False,congruent,"{'text': '초록', 'letterColor': 'green', 'userColor': 'green'}",False,621.6000000000931,927290.2000000002,54.0
True,55,blue,incongruent,빨강,blue,xyAILKfYP2M8GqAai11x6NT7IcP2,927925.1,stroop,,False,incongruent,"{'text': '빨강', 'letterColor': 'blue', 'userColor': 'blue'}",False,829.3000000002794,928754.4000000004,55.0
True,56,yellow,neutral,기차,yellow,xyAILKfYP2M8GqAai11x6NT7IcP2,929378.0,stroop,,False,neutral,"{'text': '기차', 'letterColor': 'yellow', 'userColor': 'yellow'}",False,657.7000000001863,930035.7000000002,56.0
True,57,green,incongruent,노랑,green,xyAILKfYP2M8GqAai11x6NT7IcP2,930665.1,stroop,,False,incongruent,"{'text': '노랑', 'letterColor': 'green', 'userColor': 'green'}",False,846.7000000001863,931511.8000000004,57.0
True,58,blue,neutral,기차,blue,xyAILKfYP2M8GqAai11x6NT7IcP2,932134.7000000002,stroop,,False,neutral,"{'text': '기차', 'letterColor': 'blue', 'userColor': 'blue'}",False,718.2999999998137,932853.0,58.0
True,59,red,neutral,가방,red,xyAILKfYP2M8GqAai11x6NT7IcP2,933479.6,stroop,,False,neutral,"{'text': '가방', 'letterColor': 'red', 'userColor': 'red'}",False,736.8000000002794,934216.4000000004,59.0
True,60,yellow,incongruent,파랑,yellow,xyAILKfYP2M8GqAai11x6NT7IcP2,934859.4000000004,stroop,,False,incongruent,"{'text': '파랑', 'letterColor': 'yellow', 'userColor': 'yellow'}",False,1817.599999999628,936677.0,60.0
True,61,blue,congruent,파랑,blue,xyAILKfYP2M8GqAai11x6NT7IcP2,937308.6,stroop,,False,congruent,"{'text': '파랑', 'letterColor': 'blue', 'userColor': 'blue'}",False,1020.7000000001864,938329.3000000004,61.0
True,62,green,incongruent,파랑,green,xyAILKfYP2M8GqAai11x6NT7IcP2,938964.9000000004,stroop,,False,incongruent,"{'text': '파랑', 'letterColor': 'green', 'userColor': 'green'}",False,1311.6999999997206,940276.6,62.0
True,63,red,incongruent,노랑,red,xyAILKfYP2M8GqAai11x6NT7IcP2,940915.1,stroop,,False,incongruent,"{'text': '노랑', 'letterColor': 'red', 'userColor': 'red'}",False,1144.2000000001865,942059.3000000004,63.0
True,64,blue,congruent,파랑,blue,xyAILKfYP2M8GqAai11x6NT7IcP2,942676.7000000002,stroop,,False,congruent,"{'text': '파랑', 'letterColor': 'blue', 'userColor': 'blue'}",False,1297.6000000000931,943974.3000000004,64.0
True,65,yellow,incongruent,빨강,yellow,xyAILKfYP2M8GqAai11x6NT7IcP2,944606.3000000004,stroop,,False,incongruent,"{'text': '빨강', 'letterColor': 'yellow', 'userColor': 'yellow'}",False,944.8999999999068,945551.2000000002,65.0
