﻿participant_id,stroop_rt_interference,stroop_rt_facilitation,stroop_rt_incong_minus_neutral,stroop_rt_neutral_minus_cong,stroop_rt_interference_correct,stroop_rt_facilitation_correct,stroop_rt_incong_minus_neutral_correct,stroop_rt_neutral_minus_cong_correct,stroop_acc_interference,stroop_acc_facilitation,stroop_trials,stroop_ez_congruent_v,stroop_ez_congruent_a,stroop_ez_congruent_t0,stroop_ez_congruent_sv,stroop_ez_congruent_sz,stroop_ez_congruent_st0,stroop_ez_incongruent_v,stroop_ez_incongruent_a,stroop_ez_incongruent_t0,stroop_ez_incongruent_sv,stroop_ez_incongruent_sz,stroop_ez_incongruent_st0,stroop_ez_neutral_v,stroop_ez_neutral_a,stroop_ez_neutral_t0,stroop_ez_neutral_sv,stroop_ez_neutral_sz,stroop_ez_neutral_st0,stroop_ez_congruent_v_sd,stroop_ez_incongruent_v_sd,stroop_ez_neutral_v_sd,stroop_ez_v_sd_interference,stroop_ez_v_interference,stroop_ez_a_interference,stroop_ez_t0_interference,wcst_trials,wcst_total_errors,wcst_error_rate,wcst_perseverative_errors,wcst_perseverative_error_rate,wcst_nonperseverative_errors,wcst_perseverative_responses,wcst_perseverative_response_percent,wcst_error_pr_ratio,wcst_error_npe_ratio,wcst_trials_to_first_category,wcst_categories_completed,wcst_trials_per_category_mean,wcst_trials_per_category_sd,wcst_trials_per_category_1,wcst_trials_per_category_2,wcst_trials_per_category_3,wcst_trials_per_category_4,wcst_trials_per_category_5,wcst_trials_per_category_6,wcst_completed_categories,wcst_total_trials_summary,wcst_total_correct_summary,wcst_failure_to_maintain_set,wcst_clr_count,wcst_clr_percent,wcst_learning_to_learn,wcst_learning_to_learn_heaton_clr_delta,wcst_learning_efficiency_delta_trials,wcst_trials_to_first_conceptual_resp,wcst_trials_to_first_conceptual_resp0,wcst_has_first_clr,wcst_category_clr_percents
06qcrpGKL6Vc3LVplFQC90VAcRm1,55.011111111276705,-12.533333335485736,67.54444444676244,-12.533333335485736,49.00222222242087,-12.533333335485736,61.535555557906605,-12.533333335485736,-0.02777777777777779,0.0,108,0.008806436673665275,4.840413932446045,415.48923352052583,0.0,0.0,0.0,0.008616508433983974,4.126205050141807,505.5459768001484,0.0,0.0,0.0,0.009575541908632487,4.4516330435549065,444.15323624748123,0.0,0.0,0.0,,,,,-0.00018992823968130151,-0.7142088823042378,90.0567432796226,82,13,0.15853658536585366,9,10.975609756097562,4,25,30.48780487804878,0.6923076923076923,0.3076923076923077,14.0,6.0,13.666666666666666,2.9814239699997196,14.0,13.0,11.0,12.0,12.0,20.0,6.0,82.0,69.0,0.0,67.0,81.70731707317073,,4.135309135309143,-2.0,7.0,6.0,1.0,"[71.42857142857143, 76.92307692307693, 90.9090909090909, 83.33333333333334, 83.33333333333334, 85.0]"
0ZtXlQtAJkW6jS21vfMOtNL4OnL2,85.79999999998836,107.87777777778035,-22.077777777791994,107.87777777778035,93.10857142856605,105.28706349207118,-12.178492063505132,105.28706349207118,0.0,0.02777777777777779,108,0.008605030126133043,4.131709022949265,396.72800531856603,0.0,0.0,0.0,0.006548780278472143,5.429023284193757,325.0959751369895,0.0,0.0,0.0,0.006752731795031265,6.312526554331459,274.3308652264307,0.0,0.0,0.0,,,,,-0.0020562498476609002,1.2973142612444928,-71.63203018157651,77,11,0.14285714285714285,8,10.38961038961039,3,28,36.36363636363637,0.7272727272727273,0.2727272727272727,10.0,6.0,12.833333333333334,2.4776781245530843,10.0,15.0,17.0,13.0,11.0,11.0,6.0,77.0,66.0,0.0,63.0,81.81818181818183,,4.417020887609127,2.333333333333334,3.0,2.0,1.0,"[100.0, 86.66666666666667, 58.82352941176471, 76.92307692307693, 90.9090909090909, 90.9090909090909]"
0d841i8KPjdjwCYfDuUUXj0SEjH2,272.66944448153174,228.0194445451101,44.64999993642164,228.0194445451101,278.45655465887376,225.17714294403322,53.279411714840535,225.17714294403322,-0.02777777777777779,0.02777777777777779,108,0.008070180430396324,4.40553726419573,494.1352381992674,0.0,0.0,0.0,0.00572677154854109,4.947313368520846,646.4273153431442,0.0,0.0,0.0,0.006431476075794003,6.627840680438304,476.14703688579334,0.0,0.0,0.0,,,,,-0.0023434088818552346,0.5417761043251161,152.29207714387678,68,8,0.11764705882352941,3,4.411764705882353,5,19,27.941176470588236,0.375,0.625,13.0,6.0,11.333333333333334,0.9428090415820634,13.0,12.0,11.0,10.0,11.0,11.0,6.0,68.0,60.0,0.0,60.0,88.23529411764706,,10.217560217560203,1.333333333333334,6.0,5.0,1.0,"[76.92307692307693, 83.33333333333334, 90.9090909090909, 100.0, 90.9090909090909, 90.9090909090909]"
0oa5NYVnIBS9NmrmRAZrahXDctP2,-7.377777778026143,-34.38333333283663,27.005555554810485,-34.38333333283663,0.39899159632307146,-21.021008402910525,21.419999999233596,-21.021008402910525,0.02777777777777779,0.02777777777777779,108,0.008056442967241373,3.5167050217775504,363.23156119962493,0.0,0.0,0.0,0.008260341847846553,4.304117344025276,311.5791109589529,0.0,0.0,0.0,0.010000649795535261,3.55511705157067,368.3446663714938,0.0,0.0,0.0,,,,,0.00020389888060518002,0.7874123222477252,-51.65245024067201,73,10,0.136986301369863,6,8.21917808219178,4,18,24.65753424657534,0.6,0.4,13.0,6.0,12.166666666666666,0.6871842709362768,13.0,12.0,12.0,12.0,13.0,11.0,6.0,73.0,63.0,0.0,60.0,82.1917808219178,,2.525252525252526,0.3333333333333339,6.0,5.0,1.0,"[76.92307692307693, 83.33333333333334, 83.33333333333334, 83.33333333333334, 76.92307692307693, 90.9090909090909]"
146QT9LupyU2BAiTsB3PMIpVXM22,115.33333333416113,-26.799999999917304,142.13333333407843,-26.799999999917304,120.0690476199818,-26.799999999917304,146.8690476198991,-26.799999999917304,-0.02777777777777779,0.0,108,0.008196307014044488,5.200732317295042,454.26875701413144,0.0,0.0,0.0,0.006736087791700963,5.27806075489351,512.7760505511201,0.0,0.0,0.0,0.007453960731818929,5.71867766735757,362.97228783478005,0.0,0.0,0.0,,,,,-0.0014602192223435251,0.07732843759846819,58.50729353698864,77,9,0.11688311688311688,7,9.090909090909092,2,23,29.87012987012987,0.7777777777777778,0.2222222222222222,10.0,6.0,12.833333333333334,2.034425935955617,10.0,11.0,12.0,14.0,14.0,16.0,6.0,77.0,68.0,0.0,64.0,83.11688311688312,,-14.62842712842712,-3.666666666666666,3.0,2.0,1.0,"[100.0, 90.9090909090909, 83.33333333333334, 71.42857142857143, 71.42857142857143, 87.5]"
1Vb7DcXYw9R86bw5qj9eBk9fPqA2,125.64722222586465,139.79166667080585,-14.1444444449412,139.79166667080585,134.45428571838215,139.79166667080585,-5.3373809524237,139.79166667080585,-0.02777777777777779,0.0,108,0.0063321978895470275,6.731754047165841,569.0157022454495,0.0,0.0,0.0,0.004936106401717923,7.2027378912497495,531.1903522697907,0.0,0.0,0.0,0.005216975670421282,8.170787341810813,464.2481672371986,0.0,0.0,0.0,,,,,-0.0013960914878291047,0.4709838440839089,-37.82534997565881,69,9,0.13043478260869565,6,8.695652173913043,3,15,21.73913043478261,0.6666666666666666,0.3333333333333333,11.0,6.0,11.5,0.7637626158259734,11.0,11.0,11.0,13.0,12.0,11.0,6.0,69.0,60.0,0.0,60.0,86.95652173913044,,-7.187257187257188,-1.0,4.0,3.0,1.0,"[90.9090909090909, 90.9090909090909, 90.9090909090909, 76.92307692307693, 83.33333333333334, 90.9090909090909]"
1dpmVw8fpcc2IHs0s9WqdU8Yvi53,240.625,18.6583333247238,221.9666666752762,18.6583333247238,232.23563492061612,18.6583333247238,213.57730159589232,18.6583333247238,-0.02777777777777779,0.0,108,0.00882273943928845,4.831469756501279,594.545194178671,0.0,0.0,0.0,0.005950743269637775,5.974628547041704,618.8652147576311,0.0,0.0,0.0,0.007804365270594466,5.461917438824115,539.1986760723166,0.0,0.0,0.0,,,,,-0.0028719961696506754,1.1431587905404257,24.32002057896011,72,10,0.1388888888888889,6,8.333333333333332,4,26,36.11111111111111,0.6,0.4,15.0,6.0,12.0,1.4142135623730951,15.0,11.0,11.0,11.0,12.0,12.0,6.0,72.0,62.0,0.0,60.0,83.33333333333334,,3.0303030303030454,0.6666666666666679,8.0,7.0,1.0,"[66.66666666666666, 90.9090909090909, 90.9090909090909, 90.9090909090909, 83.33333333333334, 83.33333333333334]"
1fbLQPCcysVlSKup96K4yI5NX6G3,56.30833333068426,-37.794444458352245,94.10277778903651,-37.794444458352245,42.602063491041804,-51.500714297994705,94.10277778903651,-51.500714297994705,0.02777777777777779,0.02777777777777779,108,0.005866365975002626,6.0605630072164445,442.87130095645796,0.0,0.0,0.0,0.0064045579262149745,6.655697280203254,468.15498719696916,0.0,0.0,0.0,0.007464698840446174,5.710451242781195,507.3528243231405,0.0,0.0,0.0,,,,,0.0005381919512123488,0.5951342729868099,25.2836862405112,91,22,0.24175824175824176,17,18.681318681318682,5,37,40.65934065934066,0.7727272727272727,0.22727272727272727,12.0,6.0,15.166666666666666,3.2871804872193366,12.0,18.0,21.0,14.0,14.0,12.0,6.0,91.0,69.0,0.0,65.0,71.42857142857143,,5.291005291005291,3.666666666666666,5.0,4.0,1.0,"[83.33333333333334, 55.55555555555556, 71.42857142857143, 71.42857142857143, 71.42857142857143, 83.33333333333334]"
1tT7dcLvf0bMGBdBWWYd8YkdJwr1,-89.48055555423093,-153.86388888955116,64.38333333532023,-153.86388888955116,-81.85087301267515,-148.2023015861473,66.35142857347216,-148.2023015861473,-0.02777777777777779,-0.02777777777777779,108,0.0055759760210916985,7.644724189841022,320.2557874908674,0.0,0.0,0.0,0.00578822506407474,6.142380474380784,403.7531992270239,0.0,0.0,0.0,0.005734277195176242,6.200167763916654,327.92846707331057,0.0,0.0,0.0,,,,,0.00021224904298304103,-1.5023437154602384,83.4974117361565,88,10,0.11363636363636363,7,7.954545454545454,3,29,32.95454545454545,0.7,0.3,11.0,6.0,14.666666666666666,5.676462121975467,11.0,15.0,12.0,12.0,11.0,27.0,6.0,88.0,78.0,1.0,71.0,80.68181818181817,,3.7037037037037095,-4.000000000000002,4.0,3.0,1.0,"[90.9090909090909, 66.66666666666666, 83.33333333333334, 83.33333333333334, 90.9090909090909, 77.77777777777779]"
1upUBO9zBnhHcpJ1WoAnaBXWKRV2,131.56944444278872,52.677777775459845,78.89166666732888,52.677777775459845,143.03039682337214,52.677777775459845,90.3526190479123,52.677777775459845,-0.02777777777777779,0.0,108,0.006766481347735694,6.299699441967374,417.78687906367173,0.0,0.0,0.0,0.00579411736292187,6.136134011093823,513.2976088463598,0.0,0.0,0.0,0.006830982413896739,6.240214977525715,478.9711578424307,0.0,0.0,0.0,,,,,-0.0009723639848138238,-0.16356543087355124,95.51072978268809,128,65,0.5078125,62,48.4375,3,90,70.3125,0.9538461538461539,0.046153846153846156,16.0,4.0,32.0,30.63494736408078,16.0,85.0,15.0,12.0,,,3.0,128.0,63.0,0.0,46.0,35.9375,,0.0,0.0,3.0,2.0,1.0,"[87.5, 15.294117647058824, 66.66666666666666]"
23hG7h2ByUZDbmOMTDtp0HT0xRb2,373.92222221692396,73.56134923337004,300.3608729835539,73.56134923337004,373.92222221692396,73.56134923337004,300.3608729835539,73.56134923337004,0.0,-0.02777777777777779,107,0.005668219126331486,7.520315961743982,344.19877075312,0.0,0.0,0.0,0.004588814729950476,9.289283023826338,379.0193230207542,0.0,0.0,0.0,0.005966842109285842,7.096059233757796,485.07348759866863,0.0,0.0,0.0,,,,,-0.0010794043963810096,1.7689670620823552,34.820552267634184,128,48,0.375,6,4.6875,42,19,14.84375,0.125,0.875,79.0,5.0,25.6,26.829834140374405,79.0,17.0,11.0,12.0,9.0,,4.0,128.0,80.0,1.0,62.0,48.4375,,0.0,0.0,4.0,3.0,1.0,"[27.848101265822784, 82.35294117647058, 90.9090909090909, 83.33333333333334]"
28nQWMwCaSNFBEXlicY3eHqpwKU2,113.27500002251713,-2.344444453716278,115.61944447623341,-2.344444453716278,113.27500002251713,-2.344444453716278,115.61944447623341,-2.344444453716278,0.0,0.0,108,0.008012338486883668,5.320144529614417,722.6918147612294,0.0,0.0,0.0,0.006082631332033586,7.007953703510405,598.6807365690757,0.0,0.0,0.0,0.007004808101089987,6.085362818687386,620.8176510414792,0.0,0.0,0.0,,,,,-0.0019297071548500817,1.687809173895988,-124.0110781921536,88,15,0.17045454545454544,10,11.363636363636363,5,31,35.22727272727273,0.6666666666666666,0.3333333333333333,18.0,6.0,14.666666666666666,4.422166387140534,18.0,23.0,11.0,11.0,12.0,13.0,6.0,88.0,73.0,1.0,69.0,78.4090909090909,,4.948594079028879,5.333333333333332,3.0,2.0,1.0,"[88.88888888888889, 56.52173913043478, 90.9090909090909, 90.9090909090909, 83.33333333333334, 76.92307692307693]"
2FHuv7L9nWPdbIiWHRIuXtcoyw83,288.0328282828393,184.81031746031772,103.2225108225216,184.81031746031772,281.219534050191,184.81031746031772,96.40921658987327,184.81031746031772,-0.13888888888888884,-0.02777777777777779,104,0.006790822553649271,6.27711863086546,647.0227447910419,0.0,0.0,0.0,0.004704458446801308,5.8260478967324625,833.4308422900268,0.0,0.0,0.0,0.005475499479342953,7.732822403820859,595.2171472137103,0.0,0.0,0.0,,,,,-0.002086364106847963,-0.4510707341329976,186.40809749898494,71,9,0.1267605633802817,8,11.267605633802818,1,25,35.2112676056338,0.8888888888888888,0.1111111111111111,11.0,6.0,11.833333333333334,1.2133516482134197,11.0,13.0,11.0,14.0,11.0,11.0,6.0,71.0,62.0,0.0,60.0,84.50704225352112,,-1.8315018315018528,-0.3333333333333339,4.0,3.0,1.0,"[90.9090909090909, 76.92307692307693, 90.9090909090909, 71.42857142857143, 90.9090909090909, 90.9090909090909]"
2h5FgHUEvBS1twD5DqbTIRrMm1f2,138.85833332770403,11.552777782082558,127.30555554562147,11.552777782082558,144.23261904314393,11.552777782082558,132.67984126106137,11.552777782082558,-0.02777777777777779,0.0,108,0.007527506210686577,5.662804862239396,354.34919341529195,0.0,0.0,0.0,0.005472847040077528,6.496341000312424,303.7403330842187,0.0,0.0,0.0,0.006985874397979035,6.101855879737093,306.9976405885873,0.0,0.0,0.0,,,,,-0.002054659170609049,0.8335361380730282,-50.60886033107323,99,22,0.2222222222222222,13,13.131313131313133,9,36,36.36363636363637,0.5909090909090909,0.4090909090909091,12.0,6.0,16.5,5.057996968497839,12.0,18.0,14.0,13.0,15.0,27.0,6.0,99.0,77.0,0.0,69.0,69.6969696969697,,1.2142178808845472,-3.666666666666666,5.0,4.0,1.0,"[83.33333333333334, 55.55555555555556, 71.42857142857143, 76.92307692307693, 66.66666666666666, 70.37037037037037]"
2zDXvJKvjeejeOSNbtDbtSI5cdz1,145.47500000009313,-6.530555555493493,152.00555555558662,-6.530555555493493,145.47500000009313,-6.530555555493493,152.00555555558662,-6.530555555493493,0.0,0.0,108,0.009039404108523696,4.715664689691028,459.91451515549625,0.0,0.0,0.0,0.007673565550523573,5.555018522973944,507.0796180831852,0.0,0.0,0.0,0.008981144151566747,4.746254825781525,450.08320309556444,0.0,0.0,0.0,,,,,-0.001365838558000123,0.8393538332829156,47.16510292768896,71,9,0.1267605633802817,5,7.042253521126761,4,19,26.76056338028169,0.5555555555555556,0.4444444444444444,12.0,6.0,11.833333333333334,0.6871842709362768,12.0,12.0,11.0,11.0,12.0,13.0,6.0,71.0,62.0,0.0,60.0,84.50704225352112,,-2.1367521367521363,-0.3333333333333339,5.0,4.0,1.0,"[83.33333333333334, 83.33333333333334, 90.9090909090909, 90.9090909090909, 83.33333333333334, 76.92307692307693]"
3FSnTCSiUodLp5u3bE0xaUjLk0b2,55.81666666668343,39.611111111124046,16.205555555559386,39.611111111124046,55.81666666668343,39.611111111124046,16.205555555559386,39.611111111124046,0.0,0.0,108,0.008491503933391764,5.019935114531209,535.5638543399925,0.0,0.0,0.0,0.007747648879293457,5.501901213455679,533.5494996584569,0.0,0.0,0.0,0.00754409503844391,5.65035283267132,498.4640122622037,0.0,0.0,0.0,,,,,-0.0007438550540983073,0.4819660989244703,-2.0143546815356785,84,13,0.15476190476190477,8,9.523809523809524,5,28,33.33333333333333,0.6153846153846154,0.38461538461538464,12.0,6.0,14.0,3.605551275463989,12.0,11.0,12.0,20.0,18.0,11.0,6.0,84.0,71.0,1.0,67.0,79.76190476190477,,-8.703703703703724,-4.666666666666666,5.0,4.0,1.0,"[83.33333333333334, 90.9090909090909, 83.33333333333334, 85.0, 55.55555555555556, 90.9090909090909]"
3WijiOiVCoMbn80F05SPYsxl0TC2,43.75833333532012,-8.922222220235426,52.68055555555554,-8.922222220235426,43.75833333532012,-8.922222220235426,52.68055555555554,-8.922222220235426,0.0,0.0,108,0.008372611726143475,5.091218865113623,534.9388234722107,0.0,0.0,0.0,0.007559727495144843,5.638668695107042,511.7098796477146,0.0,0.0,0.0,0.00867971082290833,4.911085131765962,546.5635779763516,0.0,0.0,0.0,,,,,-0.0008128842309986324,0.5474498299934192,-23.228943824496127,80,16,0.2,9,11.25,7,19,23.75,0.5625,0.4375,14.0,6.0,13.333333333333334,1.3743685418725535,14.0,12.0,13.0,13.0,16.0,12.0,6.0,80.0,64.0,0.0,60.0,75.0,,-2.9761904761904674,-0.6666666666666661,7.0,6.0,1.0,"[71.42857142857143, 83.33333333333334, 76.92307692307693, 76.92307692307693, 62.5, 83.33333333333334]"
3rlzYufVjVVLv3ZFLcpfZUtXEEi1,122.32777775658496,97.98888897895813,24.338888777626835,97.98888897895813,104.95040560639177,84.6411765603458,20.30922904604597,84.6411765603458,-0.13888888888888884,0.0,108,0.007778108855718881,3.6425478179995983,399.6956231651408,0.0,0.0,0.0,0.003647662186533616,3.8967031710847873,386.36566144115625,0.0,0.0,0.0,0.007068576424343069,4.008180960311999,440.4547844306146,0.0,0.0,0.0,,,,,-0.004130446669185265,0.254155353085189,-13.329961723984525,128,34,0.265625,21,16.40625,13,39,30.46875,0.6176470588235294,0.38235294117647056,46.0,5.0,25.6,10.781465577554844,46.0,20.0,21.0,26.0,15.0,,4.0,128.0,94.0,3.0,78.0,60.9375,,0.0,0.0,3.0,2.0,1.0,"[58.69565217391305, 80.0, 71.42857142857143, 38.46153846153847]"
3xCaqfcHxRQxuOlEzXz3PNcHODH2,68.65555555414824,92.06944444444446,-23.41388889029622,92.06944444444446,70.2428571410477,104.70000000013147,-34.457142859083774,104.70000000013147,-0.02777777777777779,-0.05555555555555558,108,0.008701484251677782,4.8987962900920135,383.5272289171888,0.0,0.0,0.0,0.006875073652292703,5.171359961072962,372.24213984841884,0.0,0.0,0.0,0.005478128065550663,5.1718640202534605,342.3029763959042,0.0,0.0,0.0,,,,,-0.0018264105993850786,0.2725636709809489,-11.285089068769935,69,5,0.07246376811594203,3,4.3478260869565215,2,12,17.391304347826086,0.6,0.4,12.0,6.0,11.5,2.140872096444188,12.0,16.0,10.0,10.0,11.0,10.0,6.0,69.0,64.0,0.0,63.0,91.30434782608695,,8.775252525252498,2.333333333333332,5.0,4.0,1.0,"[83.33333333333334, 81.25, 100.0, 100.0, 90.9090909090909, 100.0]"
4ySuGdFDDmaAr6JUXbD4UIY6BQ13,178.52222222223645,-58.23611111111438,236.75833333335083,-58.23611111111438,178.52222222223645,-58.23611111111438,236.75833333335083,-58.23611111111438,0.0,0.0,108,0.008419085097335535,5.063115324003993,495.2570703672146,0.0,0.0,0.0,0.006955445247176247,6.128550690226296,537.7994045827166,0.0,0.0,0.0,0.0077733664888716865,5.483698579172552,386.4354542369337,0.0,0.0,0.0,,,,,-0.0014636398501592885,1.065435366222303,42.542334215502024,82,9,0.10975609756097561,7,8.536585365853659,2,22,26.82926829268293,0.7777777777777778,0.2222222222222222,11.0,6.0,13.666666666666666,4.307615994440028,11.0,11.0,14.0,12.0,11.0,23.0,6.0,82.0,73.0,0.0,69.0,84.14634146341463,,1.2014555492816186,-3.333333333333334,4.0,3.0,1.0,"[90.9090909090909, 90.9090909090909, 71.42857142857143, 83.33333333333334, 90.9090909090909, 82.6086956521739]"
50R0P1MIMvRvK1qpqfGROchII6R2,118.84722216924024,30.59444440735706,88.25277776188318,30.59444440735706,97.42352934756309,30.59444440735706,66.82908494020603,30.59444440735706,-0.05555555555555558,0.0,108,0.008682669188883675,4.909411822920516,494.3898638177615,0.0,0.0,0.0,0.00532433599748956,5.321251974691463,422.48652115092386,0.0,0.0,0.0,0.0073884211328562295,5.769405669210203,420.25425193075876,0.0,0.0,0.0,,,,,-0.0033583331913941148,0.4118401517709467,-71.90334266683766,128,54,0.421875,38,29.6875,16,60,46.875,0.7037037037037037,0.2962962962962963,16.0,5.0,25.6,16.37803407005859,16.0,53.0,24.0,31.0,4.0,,4.0,128.0,74.0,0.0,53.0,41.40625,,0.0,0.0,5.0,4.0,1.0,"[81.25, 24.528301886792452, 58.333333333333336, 41.935483870967744]"
5OOi73igsahMZ5IVKQwwyhnj4Cn2,143.76111111117314,0.17777777778815107,143.58333333338499,0.17777777778815107,149.40865079371247,0.17777777778815107,149.23087301592432,0.17777777778815107,-0.02777777777777779,0.0,108,0.010193446651133321,4.181784653346265,585.0793586107802,0.0,0.0,0.0,0.007349032797160321,4.837844869685718,623.0490446109775,0.0,0.0,0.0,0.008570805614217135,4.973487988072493,502.5988142582068,0.0,0.0,0.0,,,,,-0.0028444138539729996,0.6560602163394531,37.96968600019727,70,7,0.1,3,4.285714285714286,4,20,28.57142857142857,0.42857142857142855,0.5714285714285714,11.0,6.0,11.666666666666666,2.4267032964268394,11.0,11.0,10.0,17.0,11.0,10.0,6.0,70.0,63.0,0.0,60.0,85.71428571428571,,-10.695187165775394,-2.0,4.0,3.0,1.0,"[90.9090909090909, 90.9090909090909, 100.0, 58.82352941176471, 90.9090909090909, 100.0]"
5Z68AKm9rIeeB2lVu3nJO7U31wk1,-2.761111111069681,27.449999999875786,-30.211111110945467,27.449999999875786,-4.142857142803905,26.01714285707908,-30.159999999882984,26.01714285707908,0.0,0.0,108,0.009327021915237054,3.811879176225836,392.5351302423424,0.0,0.0,0.0,0.008174314502745151,4.349414327397648,330.1242662022604,0.0,0.0,0.0,0.006905044294691171,5.14891419917883,259.421730513688,0.0,0.0,0.0,,,,,-0.0011527074124919028,0.537535151171812,-62.410864040082004,128,45,0.3515625,29,22.65625,16,48,37.5,0.6444444444444445,0.35555555555555557,27.0,4.0,32.0,6.819090848492928,27.0,24.0,36.0,41.0,,,3.0,128.0,83.0,4.0,66.0,51.5625,,0.0,0.0,5.0,4.0,1.0,"[85.18518518518519, 41.66666666666667, 63.888888888888886]"
5rXSa3anB5ejmFrnwUsTB82byup1,148.26944444450135,-95.5222222221912,243.79166666669255,-95.5222222221912,148.26944444450135,-95.5222222221912,243.79166666669255,-95.5222222221912,0.0,0.0,108,0.007222573845569053,5.901884796451633,445.6132045134693,0.0,0.0,0.0,0.006703630501971961,6.358763174353653,530.0023621340256,0.0,0.0,0.0,0.007203518142381207,5.9174972461889865,347.98662900210644,0.0,0.0,0.0,,,,,-0.0005189433435970918,0.4568783779020196,84.38915762055626,85,11,0.12941176470588237,7,8.235294117647058,4,28,32.94117647058823,0.6363636363636364,0.36363636363636365,13.0,6.0,14.166666666666666,3.2871804872193366,13.0,11.0,17.0,11.0,13.0,20.0,6.0,85.0,74.0,1.0,69.0,81.17647058823529,,-6.0784313725490335,-1.0,6.0,5.0,1.0,"[76.92307692307693, 90.9090909090909, 88.23529411764706, 90.9090909090909, 76.92307692307693, 70.0]"
5zxa5CMLGQSSonWOXqXf0QNS3PH3,129.66666667328934,62.886111100514654,66.78055557277469,62.886111100514654,128.31587302400953,61.535317451234846,66.78055557277469,61.535317451234846,0.02777777777777779,0.02777777777777779,108,0.01034104794094231,3.4380926205873865,419.8286477417173,0.0,0.0,0.0,0.00727431080587422,5.859908918930272,313.5517682996242,0.0,0.0,0.0,0.010733473652626932,3.971388960365187,458.50260978884256,0.0,0.0,0.0,,,,,-0.0030667371350680895,2.4218162983428857,-106.2768794420931,87,13,0.14942528735632185,7,8.045977011494253,6,26,29.88505747126437,0.5384615384615384,0.46153846153846156,14.0,6.0,14.5,3.304037933599835,14.0,11.0,12.0,12.0,19.0,19.0,6.0,87.0,74.0,0.0,67.0,77.01149425287356,,-6.744133059922547,-4.333333333333334,7.0,6.0,1.0,"[71.42857142857143, 90.9090909090909, 83.33333333333334, 83.33333333333334, 73.68421052631578, 68.42105263157895]"
62fAfeQc27bZelkPX7G54T3gvci2,189.75063492074946,-32.39722222206183,222.1478571428113,-32.39722222206183,189.75063492074946,-23.115079364906364,212.86571428565583,-23.115079364906364,-0.02777777777777779,-0.02777777777777779,107,0.007370630135398281,5.783331680922802,586.4473321254618,0.0,0.0,0.0,0.005334868133969464,7.93666572119531,435.0273168375327,0.0,0.0,0.0,0.006444413821842701,5.516945621088011,540.4962755244655,0.0,0.0,0.0,,,,,-0.0020357620014288163,2.153334040272508,-151.42001528792912,70,8,0.11428571428571428,6,8.571428571428571,2,16,22.857142857142858,0.75,0.25,13.0,6.0,11.666666666666666,0.9428090415820634,13.0,11.0,11.0,11.0,13.0,11.0,6.0,70.0,62.0,0.0,60.0,85.71428571428571,,0.0,0.0,6.0,5.0,1.0,"[76.92307692307693, 90.9090909090909, 90.9090909090909, 90.9090909090909, 76.92307692307693, 90.9090909090909]"
6ABZuv4jbjgE0B8TeyUk6nwVb122,114.30833327770222,17.163888825310664,97.14444445239155,17.163888825310664,114.30833327770222,17.163888825310664,97.14444445239155,17.163888825310664,0.0,0.0,108,0.008303563237347945,5.13355502354525,708.3606699623282,0.0,0.0,0.0,0.006784473217917256,6.28299315234073,673.0202020655119,0.0,0.0,0.0,0.009922702504658924,4.2958859998472185,815.6010029161002,0.0,0.0,0.0,,,,,-0.0015190900194306887,1.14943812879548,-35.340467896816335,88,10,0.11363636363636363,7,7.954545454545454,3,22,25.0,0.7,0.3,10.0,6.0,14.666666666666666,7.363574011458175,10.0,31.0,13.0,11.0,12.0,11.0,6.0,88.0,78.0,1.0,76.0,86.36363636363636,,1.452490162167578,6.666666666666666,3.0,2.0,1.0,"[100.0, 83.87096774193549, 76.92307692307693, 90.9090909090909, 83.33333333333334, 90.9090909090909]"
6OwhwWQDThSPHTVAeXugohrYuje2,324.0055555469461,62.04444442854992,261.96111111839616,62.04444442854992,339.6013071819458,62.04444442854992,277.5568627533959,62.04444442854992,-0.05555555555555558,0.0,108,0.007643228846143563,5.577066921386346,561.8194843539397,0.0,0.0,0.0,0.005260979069125322,5.385334757713187,801.1735888930616,0.0,0.0,0.0,0.006699149249650109,6.36301673270521,516.8463767046774,0.0,0.0,0.0,,,,,-0.0023822497770182418,-0.19173216367315948,239.35410453912186,128,75,0.5859375,0,0.0,75,0,0.0,0.0,1.0,128.0,1.0,128.0,0.0,128.0,,,,,,0.0,128.0,53.0,1.0,19.0,14.84375,,0.0,0.0,10.0,9.0,1.0,
6WFCyGwk71XLPBmbe4Vav3eotVm1,30.483333415455263,-38.77777769830493,69.2611111137602,-38.77777769830493,30.483333415455263,-38.77777769830493,69.2611111137602,-38.77777769830493,0.0,0.0,108,0.009794640958383234,4.352053224975942,469.6756741559916,0.0,0.0,0.0,0.008791334351505972,4.848729108239541,448.0454575812695,0.0,0.0,0.0,0.013144312156766334,3.2429843617545315,526.957606054035,0.0,0.0,0.0,,,,,-0.0010033066068772627,0.4966758832635998,-21.630216574722112,69,7,0.10144927536231885,4,5.797101449275362,3,14,20.28985507246377,0.5714285714285714,0.42857142857142855,10.0,6.0,11.5,1.707825127659933,10.0,12.0,15.0,11.0,11.0,10.0,6.0,69.0,62.0,0.0,60.0,86.95652173913044,,10.606060606060607,1.666666666666668,3.0,2.0,1.0,"[100.0, 83.33333333333334, 66.66666666666666, 90.9090909090909, 90.9090909090909, 100.0]"
7cvQFrzIDEVAkFCcGAHZPUvJ2MF3,145.64166670375403,161.83055557145008,-16.18888886769605,161.83055557145008,145.64166670375403,161.83055557145008,-16.18888886769605,161.83055557145008,0.0,0.0,108,0.00786395479413807,5.420529477380511,699.4489009029126,0.0,0.0,0.0,0.007521146181048848,5.667593441784262,813.8499028322248,0.0,0.0,0.0,0.006463133288573568,6.595376710824581,700.2924752660795,0.0,0.0,0.0,,,,,-0.0003428086130892226,0.24706396440375045,114.4010019293122,76,12,0.15789473684210525,6,7.894736842105263,6,22,28.947368421052634,0.5,0.5,16.0,6.0,12.666666666666666,1.6996731711975948,16.0,11.0,13.0,11.0,12.0,13.0,6.0,76.0,64.0,0.0,60.0,78.94736842105263,,6.944444444444457,1.333333333333334,9.0,8.0,1.0,"[62.5, 90.9090909090909, 76.92307692307693, 90.9090909090909, 83.33333333333334, 76.92307692307693]"
80UJMJbCOMgs6YVpsMgXfYTzw6o2,74.12777777787096,68.51111111106968,5.6166666668012795,68.51111111106968,74.12777777787096,68.51111111106968,5.6166666668012795,68.51111111106968,0.0,0.0,108,0.009721529992272682,4.384782930700807,480.08690901874013,0.0,0.0,0.0,0.009359431861234805,4.554421614731364,536.9214376393178,0.0,0.0,0.0,0.008413947896385963,5.066206648215953,475.1555358635656,0.0,0.0,0.0,,,,,-0.00036209813103787666,0.16963868403055749,56.83452862057766,71,10,0.14084507042253522,5,7.042253521126761,5,19,26.76056338028169,0.5,0.5,13.0,6.0,11.833333333333334,0.6871842709362769,13.0,12.0,12.0,12.0,11.0,11.0,6.0,71.0,61.0,0.0,60.0,84.50704225352112,,7.187257187257174,1.0,6.0,5.0,1.0,"[76.92307692307693, 83.33333333333334, 83.33333333333334, 83.33333333333334, 90.9090909090909, 90.9090909090909]"
87w5Le0CgZhSfYAaOH3Xd2fc98l1,90.04523809559282,-98.66285714294236,188.70809523853518,-98.66285714294236,90.04523809559282,-98.66285714294236,188.70809523853518,-98.66285714294236,0.02777777777777779,0.0,106,0.005257783021854971,8.053026317361136,627.5324129602474,0.0,0.0,0.0,0.005581389901095036,7.637308900790118,796.3453058677928,0.0,0.0,0.0,0.005924285124333822,7.14703363483604,686.8448198422813,0.0,0.0,0.0,,,,,0.000323606879240065,-0.4157174165710176,168.81289290754546,128,44,0.34375,14,10.9375,30,37,28.90625,0.3181818181818182,0.6818181818181818,46.0,6.0,21.333333333333332,11.827463332806783,46.0,20.0,23.0,16.0,13.0,10.0,5.0,128.0,84.0,0.0,73.0,57.03125,,0.0,0.0,35.0,34.0,1.0,"[28.26086956521739, 50.0, 78.26086956521739, 81.25, 76.92307692307693]"
8bwaafIhKVMNBoHaXFcY8HirS9u2,30.705555518468145,-4.7805555793975145,35.48611109786566,-4.7805555793975145,24.18316989708569,-4.7805555793975145,28.963725476483205,-4.7805555793975145,-0.05555555555555558,0.0,108,0.008629852033042977,4.939458823534723,384.579012119668,0.0,0.0,0.0,0.006204114835642612,4.566668121259488,359.85445587633143,0.0,0.0,0.0,0.009554360523170142,4.461502019631723,431.0389992902202,0.0,0.0,0.0,,,,,-0.002425737197400365,-0.3727907022752355,-24.724556243336565,82,9,0.10975609756097561,7,8.536585365853659,2,25,30.48780487804878,0.7777777777777778,0.2222222222222222,11.0,6.0,13.666666666666666,4.714045207910316,11.0,12.0,13.0,12.0,24.0,10.0,6.0,82.0,73.0,0.0,70.0,85.36585365853658,,5.167055167055167,-3.333333333333334,4.0,3.0,1.0,"[90.9090909090909, 83.33333333333334, 76.92307692307693, 83.33333333333334, 83.33333333333334, 100.0]"
8cOQBMgQEYSlJ4CK60pFMmBVEBV2,317.7583335505592,50.77777788374169,266.9805556668175,50.77777788374169,317.49015896660944,50.77777788374169,266.71238108286775,50.77777788374169,-0.02777777777777779,0.0,108,0.006179859115929206,6.897697499371524,465.3788829570922,0.0,0.0,0.0,0.00491260177434583,7.237199807352287,629.7722744086849,0.0,0.0,0.0,0.006406275676282463,6.6539126513439975,553.8314159487876,0.0,0.0,0.0,,,,,-0.001267257341583376,0.3395023079807631,164.39339145159272,98,28,0.2857142857142857,6,6.122448979591836,22,23,23.46938775510204,0.21428571428571427,0.7857142857142857,38.0,6.0,16.333333333333332,9.706813185707357,38.0,12.0,12.0,11.0,13.0,12.0,6.0,98.0,70.0,0.0,60.0,61.224489795918366,,19.394348341716764,8.666666666666668,31.0,30.0,1.0,"[26.31578947368421, 83.33333333333334, 83.33333333333334, 90.9090909090909, 76.92307692307693, 83.33333333333334]"
9NTZ091xWyOO8DgzyTGY0O3i8IR2,34.01944444457888,42.18611111111625,-8.166666666537367,42.18611111111625,20.5055555556778,28.67222222221517,-8.166666666537367,28.67222222221517,0.05555555555555558,0.05555555555555558,108,0.004959002600877366,5.7132725511274245,309.50504876401806,0.0,0.0,0.0,0.008162398646294781,5.222337283142021,531.0396043245696,0.0,0.0,0.0,0.00828690518805304,5.143874317744923,548.4817771137685,0.0,0.0,0.0,,,,,0.0032033960454174153,-0.4909352679854031,221.53455556055155,91,10,0.10989010989010989,7,7.6923076923076925,3,19,20.87912087912088,0.7,0.3,11.0,6.0,15.166666666666666,4.597704741377907,11.0,20.0,13.0,12.0,23.0,12.0,6.0,91.0,81.0,1.0,77.0,84.61538461538461,,-5.968210533427921,-1.0,4.0,3.0,1.0,"[90.9090909090909, 95.0, 76.92307692307693, 83.33333333333334, 78.26086956521739, 83.33333333333334]"
9Xz1RIwnPXgyRqmucudW9VeuDnq1,228.12745098039204,71.80555555555065,156.3218954248414,71.80555555555065,225.38928571428573,105.48650793650313,119.9027777777826,105.48650793650313,-0.08333333333333337,0.02777777777777779,106,0.005653491256158133,6.288765473222778,532.2005989041578,0.0,0.0,0.0,0.004629070319284118,5.989515239570956,712.0404670009392,0.0,0.0,0.0,0.005356905280891435,7.957355326491742,440.8838826981098,0.0,0.0,0.0,,,,,-0.0010244209368740148,-0.29925023365182213,179.8398680967814,71,9,0.1267605633802817,8,11.267605633802818,1,20,28.169014084507044,0.8888888888888888,0.1111111111111111,13.0,6.0,11.833333333333334,0.6871842709362769,13.0,12.0,12.0,11.0,11.0,12.0,6.0,71.0,62.0,0.0,60.0,84.50704225352112,,7.187257187257174,1.0,6.0,5.0,1.0,"[76.92307692307693, 83.33333333333334, 83.33333333333334, 90.9090909090909, 90.9090909090909, 83.33333333333334]"
A9AEg0g6c2P1Bk72HLmnK3oWJ9B2,127.23888889948535,-44.74444444974256,171.9833333492279,-44.74444444974256,127.23888889948535,-44.74444444974256,171.9833333492279,-44.74444444974256,0.0,0.0,108,0.007836085511932179,5.439807759308451,496.1501738846135,0.0,0.0,0.0,0.005516022512864163,7.727814502388512,279.8172798281827,0.0,0.0,0.0,0.006754679623217902,6.3107062285962225,334.70401930799744,0.0,0.0,0.0,,,,,-0.0023200629990680153,2.288006743080061,-216.3328940564308,82,16,0.1951219512195122,9,10.975609756097562,7,24,29.268292682926827,0.5625,0.4375,22.0,6.0,13.666666666666666,3.815174380753199,22.0,11.0,13.0,11.0,12.0,13.0,6.0,82.0,66.0,0.0,60.0,73.17073170731707,,12.62626262626263,3.333333333333334,15.0,14.0,1.0,"[45.45454545454545, 90.9090909090909, 76.92307692307693, 90.9090909090909, 83.33333333333334, 76.92307692307693]"
ASGvwW80q7VY7xFaLGZhVuErUQu2,147.41111124886402,127.1416669421726,20.269444306691412,127.1416669421726,146.64671730272698,127.1416669421726,19.505050360554378,127.1416669421726,-0.08333333333333337,0.0,108,0.011197258831023953,3.806895903156962,612.9102489860907,0.0,0.0,0.0,0.006081730777847174,3.942784316485616,654.7023923212174,0.0,0.0,0.0,0.008047609481143258,5.2968274455034265,585.3704799788775,0.0,0.0,0.0,,,,,-0.005115528053176778,0.13588841332865398,41.79214333512675,80,9,0.1125,7,8.75,2,26,32.5,0.7777777777777778,0.2222222222222222,10.0,6.0,13.333333333333334,3.590109871423003,10.0,21.0,12.0,13.0,11.0,13.0,6.0,80.0,71.0,1.0,67.0,83.75,,-6.51015651015652,2.0,3.0,2.0,1.0,"[100.0, 80.95238095238095, 83.33333333333334, 76.92307692307693, 90.9090909090909, 76.92307692307693]"
AUKCfn4HzgVB7m6LNnh2gQb7G5s2,84.56388889418713,-24.461111108461978,109.02500000264911,-24.461111108461978,88.57119048512175,-24.461111108461978,113.03230159358372,-24.461111108461978,-0.02777777777777779,0.0,108,0.007206271325147744,5.915236444353455,534.2694774487576,0.0,0.0,0.0,0.005785707763694672,6.145052959292604,520.311330099883,0.0,0.0,0.0,0.005932847915212087,7.184879737287076,320.1335381983207,0.0,0.0,0.0,,,,,-0.001420563561453072,0.22981651493914956,-13.958147348874604,94,20,0.2127659574468085,10,10.638297872340425,10,25,26.595744680851062,0.5,0.5,20.0,6.0,15.666666666666666,3.0912061651652345,20.0,16.0,15.0,12.0,19.0,12.0,6.0,94.0,74.0,1.0,66.0,70.2127659574468,,23.90350877192983,2.666666666666666,13.0,12.0,1.0,"[50.0, 62.5, 66.66666666666666, 83.33333333333334, 84.21052631578947, 83.33333333333334]"
AsXBOflrszVNKoFqbN61bMJqS0k2,121.92222222023531,21.04444444179535,100.87777777843996,21.04444444179535,89.18207070682979,28.511507932345012,60.67056277448478,28.511507932345012,-0.08333333333333337,-0.02777777777777779,108,0.00773514340637994,5.510796184496677,379.1796243940252,0.0,0.0,0.0,0.005370956675391582,4.464558956107287,468.3344660815248,0.0,0.0,0.0,0.007538057387064272,4.7165309030289295,458.54682110177936,0.0,0.0,0.0,,,,,-0.0023641867309883583,-1.0462372283893897,89.15484168749958,105,20,0.19047619047619047,19,18.095238095238095,1,46,43.80952380952381,0.95,0.05,10.0,6.0,17.5,7.932002689527196,10.0,17.0,34.0,15.0,11.0,18.0,6.0,105.0,85.0,1.0,81.0,77.14285714285715,,-5.622895622895626,5.666666666666666,3.0,2.0,1.0,"[100.0, 76.47058823529412, 73.52941176470588, 86.66666666666667, 90.9090909090909, 55.55555555555556]"
BbwUTWswjtPWhb5DvLAmh9Hdpyl2,164.60000000003492,34.9138888888798,129.68611111115513,34.9138888888798,164.60000000003492,41.09785714284749,123.50214285718744,41.09785714284749,0.0,-0.02777777777777779,108,0.008209469506313708,5.192393824915232,452.56538526912374,0.0,0.0,0.0,0.006692433858680159,6.369401576546891,461.9776368927732,0.0,0.0,0.0,0.006814010883198388,5.217702352451469,439.52745584341653,0.0,0.0,0.0,,,,,-0.0015170356476335491,1.1770077516316588,9.412251623649468,128,79,0.6171875,1,0.78125,78,2,1.5625,0.012658227848101266,0.9873417721518988,126.0,2.0,64.0,62.0,126.0,2.0,,,,,1.0,128.0,49.0,0.0,16.0,12.5,,0.0,0.0,50.0,49.0,1.0,[12.698412698412698]
BcCTlXWx6ARh4rBtkdWRgZH3C7H2,328.4277777738042,54.525000015894534,273.9027777579097,54.525000015894534,352.5638888848374,54.525000015894534,298.0388888689429,54.525000015894534,-0.05555555555555558,0.0,108,0.008791960385621456,4.848383853062612,567.7169708149144,0.0,0.0,0.0,0.007073306523963977,4.005500587960445,936.6682048331654,0.0,0.0,0.0,0.008090392546273478,5.268817121864817,573.7343157646915,0.0,0.0,0.0,,,,,-0.0017186538616574794,-0.8428832651021665,368.95123401825106,77,10,0.12987012987012986,5,6.493506493506493,5,20,25.97402597402597,0.5,0.5,13.0,6.0,12.833333333333334,1.0671873729054748,13.0,13.0,12.0,14.0,14.0,11.0,6.0,77.0,67.0,0.0,60.0,77.92207792207793,,-1.1377511377511524,-0.3333333333333339,6.0,5.0,1.0,"[76.92307692307693, 76.92307692307693, 83.33333333333334, 71.42857142857143, 71.42857142857143, 90.9090909090909]"
C4HWhqUIJ3Rl6SboyJGqlrXFAJJ2,15.205555564827478,-113.3250000013245,128.53055556615197,-113.3250000013245,15.205555564827478,-116.14523809523803,131.3507936600655,-116.14523809523803,0.0,-0.02777777777777779,108,0.007507501847931639,5.6778938765305975,525.272761010928,0.0,0.0,0.0,0.007120208214822854,5.986734865656414,499.39564434668256,0.0,0.0,0.0,0.0069968613233675455,5.081347045732568,433.8283741186528,0.0,0.0,0.0,,,,,-0.0003872936331087845,0.3088409891258168,-25.87711666424542,105,17,0.1619047619047619,11,10.476190476190476,6,31,29.523809523809526,0.6470588235294118,0.35294117647058826,27.0,6.0,17.5,5.993051532121734,27.0,17.0,13.0,11.0,24.0,13.0,6.0,105.0,88.0,1.0,83.0,79.04761904761905,,1.1999075724565813,3.0,8.0,7.0,1.0,"[74.07407407407408, 88.23529411764706, 76.92307692307693, 90.9090909090909, 75.0, 76.92307692307693]"
CDEoAyvS8feXLKMKsaZah9agEhF3,194.08888888889408,81.67222222221449,112.41666666667959,81.67222222221449,194.08888888889408,81.67222222221449,112.41666666667959,81.67222222221449,0.0,0.0,108,0.01066215445848629,3.997953597125523,563.3439322263146,0.0,0.0,0.0,0.006528725230242218,6.529115143789216,453.5681903207584,0.0,0.0,0.0,0.00796786190214878,5.349841562755695,500.903300718916,0.0,0.0,0.0,,,,,-0.004133429228244073,2.531161546663693,-109.77574190555617,68,6,0.08823529411764706,6,8.823529411764707,0,20,29.411764705882355,1.0,0.0,10.0,6.0,11.333333333333334,0.9428090415820634,10.0,11.0,11.0,11.0,12.0,13.0,6.0,68.0,62.0,0.0,60.0,88.23529411764706,,-10.217560217560203,-1.333333333333334,3.0,2.0,1.0,"[100.0, 90.9090909090909, 90.9090909090909, 90.9090909090909, 83.33333333333334, 76.92307692307693]"
CGyTPhevTbSvVnZ8qSP0NtWuhgw1,386.81388890080984,69.18888889418713,317.6250000066227,69.18888889418713,398.02023810488845,69.18888889418713,328.8313492107013,69.18888889418713,-0.02777777777777779,0.0,108,0.006524285578824302,6.53355808163362,416.5063470968104,0.0,0.0,0.0,0.004662304811816079,7.62573063107927,528.955333306864,0.0,0.0,0.0,0.006296769115923104,6.769630263656908,449.8811903118873,0.0,0.0,0.0,,,,,-0.0018619807670082235,1.0921725494456496,112.44898621005359,91,20,0.21978021978021978,11,12.087912087912088,9,24,26.373626373626376,0.55,0.45,16.0,6.0,15.166666666666666,2.91070819942883,16.0,15.0,11.0,12.0,19.0,18.0,6.0,91.0,71.0,0.0,64.0,70.32967032967034,,-2.111022505759351,-2.333333333333332,9.0,8.0,1.0,"[62.5, 66.66666666666666, 90.9090909090909, 83.33333333333334, 52.63157894736842, 77.77777777777779]"
CN1ySCsiSLN4m9yh9fS4s5p6T8k1,82.35277777778936,-56.95000000001164,139.302777777801,-56.95000000001164,82.35277777778936,-56.95000000001164,139.302777777801,-56.95000000001164,0.0,0.0,108,0.008056766342637486,5.290807373279088,600.464011125126,0.0,0.0,0.0,0.006003299610502822,7.1005616137894005,427.0808751790389,0.0,0.0,0.0,0.008119315481342532,5.250048340696431,548.4135201866022,0.0,0.0,0.0,,,,,-0.002053466732134664,1.8097542405103129,-173.38313594608712,81,17,0.20987654320987653,9,11.11111111111111,8,21,25.925925925925924,0.5294117647058824,0.47058823529411764,16.0,6.0,13.5,2.6299556396765835,16.0,12.0,11.0,18.0,11.0,13.0,6.0,81.0,64.0,0.0,60.0,74.07407407407408,,-4.451566951566946,-1.0,9.0,8.0,1.0,"[62.5, 83.33333333333334, 90.9090909090909, 55.55555555555556, 90.9090909090909, 76.92307692307693]"
CUNlBEszJVRGK1jWlTaOaCqpDg53,98.90277777777771,32.136111111017954,66.76666666675976,32.136111111017954,98.90277777777771,32.136111111017954,66.76666666675976,32.136111111017954,0.0,0.0,108,0.00842312804061993,5.06068512372702,453.26263858372687,0.0,0.0,0.0,0.007385874582148892,5.771394883070313,464.37300710940855,0.0,0.0,0.0,0.007534151100838323,5.657810442064286,412.41063470919784,0.0,0.0,0.0,,,,,-0.0010372534584710373,0.7107097593432927,11.110368525681679,76,12,0.15789473684210525,11,14.473684210526317,1,23,30.263157894736842,0.9166666666666666,0.08333333333333333,10.0,6.0,12.666666666666666,1.4907119849998596,10.0,13.0,12.0,15.0,13.0,13.0,6.0,76.0,64.0,0.0,63.0,82.89473684210526,,-6.581196581196593,-2.0,3.0,2.0,1.0,"[100.0, 76.92307692307693, 83.33333333333334, 86.66666666666667, 76.92307692307693, 76.92307692307693]"
Cbkx2NHyF3NrebzXGqNgSfiWent1,205.50555555439655,53.797222222718915,151.70833333167764,53.797222222718915,205.50555555439655,47.44261904821269,158.06293650618386,47.44261904821269,0.0,-0.02777777777777779,108,0.009447246921919946,4.512086867498773,532.4207941660983,0.0,0.0,0.0,0.007476321513639782,5.701573787676864,599.3803711662085,0.0,0.0,0.0,0.007640272439447668,4.6534309995710545,524.4197346643004,0.0,0.0,0.0,,,,,-0.001970925408280164,1.1894869201780907,66.95957700011024,71,8,0.11267605633802817,5,7.042253521126761,3,19,26.76056338028169,0.625,0.375,13.0,6.0,11.833333333333334,0.8975274678557508,13.0,11.0,11.0,11.0,12.0,13.0,6.0,71.0,63.0,0.0,60.0,84.50704225352112,,-2.525252525252526,-0.3333333333333339,6.0,5.0,1.0,"[76.92307692307693, 90.9090909090909, 90.9090909090909, 90.9090909090909, 83.33333333333334, 76.92307692307693]"
Co587hoelyeANqFX7AYvuVQW0lZ2,27.166666668322364,-6.225000000662249,33.39166666898461,-6.225000000662249,26.858888890156663,-6.225000000662249,33.08388889081891,-6.225000000662249,-0.02777777777777779,0.0,108,0.007530194088847739,5.66078354255752,276.42965673034684,0.0,0.0,0.0,0.0072469112262154405,4.906018509828119,349.03470364801643,0.0,0.0,0.0,0.00849395934219865,5.018483966439532,348.42719960465496,0.0,0.0,0.0,,,,,-0.0002832828626322982,-0.7547650327294013,72.6050469176696,82,15,0.18292682926829268,9,10.975609756097562,6,22,26.82926829268293,0.6,0.4,11.0,6.0,13.666666666666666,4.6785562825394,11.0,24.0,11.0,11.0,13.0,12.0,6.0,82.0,67.0,0.0,66.0,80.48780487804879,,0.8935508935509091,3.333333333333334,4.0,3.0,1.0,"[90.9090909090909, 66.66666666666666, 90.9090909090909, 90.9090909090909, 76.92307692307693, 83.33333333333334]"
CtJe4bZZnYUBNrcPk00d3YQFSGp2,107.90833333330613,44.57777777775971,63.330555555546425,44.57777777775971,107.90833333330613,44.57777777775971,63.330555555546425,44.57777777775971,0.0,0.0,108,0.008731051857925748,4.8822065730508815,469.93322526609285,0.0,0.0,0.0,0.007898834556143137,5.396593442669487,517.5460282114836,0.0,0.0,0.0,0.009234282751865622,4.616146149715982,543.3301684761275,0.0,0.0,0.0,,,,,-0.0008322173017826107,0.5143868696186056,47.6128029453908,80,16,0.2,11,13.750000000000002,5,23,28.749999999999996,0.6875,0.3125,13.0,6.0,13.333333333333334,1.3743685418725535,13.0,14.0,13.0,16.0,12.0,12.0,6.0,80.0,64.0,0.0,60.0,75.0,,1.2973137973138051,0.0,6.0,5.0,1.0,"[76.92307692307693, 71.42857142857143, 76.92307692307693, 62.5, 83.33333333333334, 83.33333333333334]"
DAKDKPH698P12JfTbbjemLI6PIH2,65.56111111905841,40.28888889319376,25.272222225864653,40.28888889319376,65.56111111905841,40.28888889319376,25.272222225864653,40.28888889319376,0.0,0.0,108,0.013179693578011815,3.2342784388803327,479.8951218077141,0.0,0.0,0.0,0.008796976481001719,4.845619271856829,396.9837044581951,0.0,0.0,0.0,0.010790080883993962,3.9505541458587135,461.4959573954683,0.0,0.0,0.0,,,,,-0.004382717097010096,1.611340832976496,-82.91141734951896,86,15,0.1744186046511628,7,8.13953488372093,8,23,26.744186046511626,0.4666666666666667,0.5333333333333333,16.0,6.0,14.333333333333334,3.815174380753199,16.0,11.0,11.0,13.0,22.0,13.0,6.0,86.0,71.0,1.0,67.0,77.90697674418605,,-4.399766899766888,-3.333333333333334,9.0,8.0,1.0,"[62.5, 90.9090909090909, 90.9090909090909, 76.92307692307693, 77.27272727272727, 76.92307692307693]"
DPvStUYSmohmXwFwaKRqHv89R3k1,216.9000000026491,25.219444433848025,191.68055556880108,25.219444433848025,217.89949495804433,25.219444433848025,192.6800505241963,25.219444433848025,-0.08333333333333337,0.0,108,0.006729712560676299,6.334118788296277,457.1584807190535,0.0,0.0,0.0,0.004339632523600284,5.525572176348719,602.0601378430683,0.0,0.0,0.0,0.007046204907889072,6.049611007293782,522.556862373661,0.0,0.0,0.0,,,,,-0.002390080037076015,-0.8085466119475582,144.90165712401483,63,3,0.047619047619047616,3,4.761904761904762,0,18,28.57142857142857,1.0,0.0,10.0,6.0,10.5,0.5,10.0,11.0,11.0,10.0,10.0,11.0,6.0,63.0,60.0,0.0,60.0,95.23809523809524,,3.030303030303017,0.3333333333333321,3.0,2.0,1.0,"[100.0, 90.9090909090909, 90.9090909090909, 100.0, 100.0, 90.9090909090909]"
DaRehVxIOhXtEtUExdgvUl0mKcx2,474.18055555721116,115.38055554529024,358.80000001192093,115.38055554529024,480.58873015959125,115.38055554529024,365.208174614301,115.38055554529024,-0.02777777777777779,0.0,108,0.006374802780472446,6.686763534236594,538.105851476553,0.0,0.0,0.0,0.0051196562373921044,6.944505444569592,888.0532725733684,0.0,0.0,0.0,0.006733317376737991,6.330727691179187,706.3399182850364,0.0,0.0,0.0,,,,,-0.0012551465430803415,0.25774191033299854,349.94742109681545,128,64,0.5,38,29.6875,26,62,48.4375,0.59375,0.40625,15.0,5.0,25.6,30.532605522621225,15.0,86.0,13.0,12.0,2.0,,4.0,128.0,64.0,0.0,40.0,31.25,,0.0,0.0,8.0,7.0,1.0,"[66.66666666666666, 11.627906976744185, 76.92307692307693, 83.33333333333334]"
DxSidjznjVSNDJuDqqGgxpMEGtw1,140.70000000794744,14.638888869020775,126.06111113892666,14.638888869020775,140.70000000794744,14.638888869020775,126.06111113892666,14.638888869020775,0.0,0.0,108,0.007403555217078455,5.757612055365249,674.6239997349036,0.0,0.0,0.0,0.007070612999144652,6.028727463314689,778.8833613724767,0.0,0.0,0.0,0.006954256906858438,6.129597934234171,638.8363431106696,0.0,0.0,0.0,,,,,-0.0003329422179338031,0.27111540794943956,104.25936163757308,68,6,0.08823529411764706,5,7.352941176470589,1,21,30.88235294117647,0.8333333333333334,0.16666666666666666,10.0,6.0,11.333333333333334,0.9428090415820634,10.0,13.0,11.0,11.0,12.0,11.0,6.0,68.0,62.0,0.0,60.0,88.23529411764706,,-0.8935508935508949,0.0,3.0,2.0,1.0,"[100.0, 76.92307692307693, 90.9090909090909, 90.9090909090909, 83.33333333333334, 90.9090909090909]"
DzB19GqCB7fyrlEPexogWkjFzEx2,180.58055557183957,89.49722221201523,91.08333335982434,89.49722221201523,180.58055557183957,89.49722221201523,91.08333335982434,89.49722221201523,0.05555555555555558,0.05555555555555558,106,0.00586403225450614,7.170309501895949,558.1013159552288,0.0,0.0,0.0,0.005594510789827561,7.619397007495464,670.0256084110907,0.0,0.0,0.0,0.0057363780519283925,7.430960509320579,611.2841110556636,0.0,0.0,0.0,,,,,-0.00026952146467857947,0.4490875055995147,111.92429245586197,79,13,0.16455696202531644,8,10.126582278481013,5,26,32.91139240506329,0.6153846153846154,0.38461538461538464,15.0,6.0,13.166666666666666,1.7716909687891083,15.0,13.0,12.0,16.0,11.0,12.0,6.0,79.0,66.0,0.0,63.0,79.74683544303798,,9.523115773115762,0.3333333333333339,8.0,7.0,1.0,"[66.66666666666666, 76.92307692307693, 83.33333333333334, 81.25, 90.9090909090909, 83.33333333333334]"
EEodWwGh0wWq5f8JmzfKvq0lyeu1,183.47222222222217,21.805555555555884,161.6666666666663,21.805555555555884,153.00000000000136,20.237373737374924,132.76262626262644,20.237373737374924,0.0,0.08333333333333337,108,0.005927912690870252,4.045092088639291,377.1596357453193,0.0,0.0,0.0,0.005115142999308696,4.687836240594725,432.62551424692447,0.0,0.0,0.0,0.007675798731914943,5.553402357096296,330.02324149847243,0.0,0.0,0.0,,,,,-0.0008127696915615559,0.6427441519554344,55.465878501605175,96,14,0.14583333333333334,11,11.458333333333332,3,30,31.25,0.7857142857142857,0.21428571428571427,10.0,6.0,16.0,5.066228051190222,10.0,24.0,20.0,11.0,13.0,18.0,6.0,96.0,82.0,1.0,79.0,82.29166666666666,,-5.074462574462586,4.0,3.0,2.0,1.0,"[100.0, 70.83333333333334, 90.0, 90.9090909090909, 76.92307692307693, 77.77777777777779]"
EUhcW9kURScie1DwGPHqmNqotJB2,129.94166664944737,49.07777779632124,80.86388885312613,49.07777779632124,130.55682537650296,49.07777779632124,81.47904758018171,49.07777779632124,-0.02777777777777779,0.0,108,0.006953885364811188,6.129925435083815,649.4766676020588,0.0,0.0,0.0,0.0056333837237721035,6.311212294107243,679.5040511099579,0.0,0.0,0.0,0.006983193100610988,6.1041987750107625,702.1437401408772,0.0,0.0,0.0,,,,,-0.0013205016410390846,0.18128685902342756,30.027383507899117,128,51,0.3984375,41,32.03125,10,67,52.34375,0.803921568627451,0.19607843137254902,10.0,4.0,32.0,13.765899897936205,10.0,35.0,35.0,48.0,,,3.0,128.0,77.0,2.0,60.0,46.875,,0.0,0.0,3.0,2.0,1.0,"[100.0, 28.57142857142857, 80.0]"
EmfmKFDgWJdW47a6CNTNjnbYaPh2,198.8666666713026,68.11944444974267,130.74722222155992,68.11944444974267,198.8666666713026,68.11944444974267,130.74722222155992,68.11944444974267,0.0,0.0,108,0.008448146863921114,5.045698122561809,523.6815875960858,0.0,0.0,0.0,0.007260230850380749,5.871273193493251,619.7675548141935,0.0,0.0,0.0,0.007802594760142109,5.463156819083198,541.7720416002701,0.0,0.0,0.0,,,,,-0.0011879160135403648,0.8255750709314418,96.08596721810773,83,11,0.13253012048192772,9,10.843373493975903,2,23,27.710843373493976,0.8181818181818182,0.18181818181818182,10.0,6.0,13.833333333333334,6.413960468297953,10.0,11.0,10.0,28.0,11.0,13.0,6.0,83.0,72.0,0.0,70.0,84.33734939759037,,-17.216117216117198,-6.999999999999998,3.0,2.0,1.0,"[100.0, 90.9090909090909, 100.0, 71.42857142857143, 90.9090909090909, 76.92307692307693]"
EoToosG69XMp4LTYdB6sB9WTrv22,65.21666671170135,36.847222208976746,28.369444502724605,36.847222208976746,65.21666671170135,39.38317458667461,25.833492125026737,39.38317458667461,0.0,-0.02777777777777779,108,0.008995732359860795,4.738557914485667,437.24906293360357,0.0,0.0,0.0,0.00870426398538695,4.897231844298001,485.02977532160446,0.0,0.0,0.0,0.010272371889742574,3.461078025260738,573.5880954264258,0.0,0.0,0.0,,,,,-0.0002914683744738456,0.15867392981233408,47.78071238800089,65,3,0.046153846153846156,1,1.5384615384615385,2,14,21.53846153846154,0.3333333333333333,0.6666666666666666,12.0,6.0,10.833333333333334,1.2133516482134197,12.0,13.0,10.0,10.0,10.0,10.0,6.0,65.0,62.0,0.0,60.0,92.3076923076923,,13.247863247863236,1.666666666666666,5.0,4.0,1.0,"[83.33333333333334, 76.92307692307693, 100.0, 100.0, 100.0, 100.0]"
Fz7EUjZCLuUBxLDUVtN6djaBTy42,88.76666666732899,33.6194444464312,55.14722222089779,33.6194444464312,88.76666666732899,33.6194444464312,55.14722222089779,33.6194444464312,0.0,0.0,108,0.009249032035887448,4.608784855000574,700.6045770619695,0.0,0.0,0.0,0.0067995117333022066,6.269097023781639,583.4093299278939,0.0,0.0,0.0,0.007998671545154015,5.32923480227646,652.5739640906826,0.0,0.0,0.0,,,,,-0.0024495203025852418,1.660312168781065,-117.19524713407566,84,14,0.16666666666666666,10,11.904761904761903,4,25,29.761904761904763,0.7142857142857143,0.2857142857142857,17.0,6.0,14.0,2.516611478423583,17.0,12.0,13.0,12.0,18.0,12.0,6.0,84.0,70.0,0.0,66.0,78.57142857142857,,12.158538629126852,0.0,10.0,9.0,1.0,"[58.82352941176471, 83.33333333333334, 76.92307692307693, 83.33333333333334, 88.88888888888889, 83.33333333333334]"
G1Ff3XYUZMRsPafyEQ80ussnVlf1,155.3083333273728,-103.69166666269302,258.9999999900658,-103.69166666269302,155.3083333273728,-103.69166666269302,258.9999999900658,-103.69166666269302,0.0,0.0,108,0.007393585765045139,5.765375573506039,579.2260426840071,0.0,0.0,0.0,0.006795171013414293,6.273101690342153,664.8309877433737,0.0,0.0,0.0,0.010505953848457797,4.0573944436916145,666.8585615668821,0.0,0.0,0.0,,,,,-0.0005984147516308455,0.507726116836114,85.60494505936663,128,42,0.328125,29,22.65625,13,52,40.625,0.6904761904761905,0.30952380952380953,30.0,6.0,21.333333333333332,15.315206676880189,30.0,52.0,12.0,11.0,13.0,10.0,5.0,128.0,86.0,1.0,69.0,53.90625,,0.0,0.0,6.0,5.0,1.0,"[70.0, 25.0, 83.33333333333334, 90.9090909090909, 76.92307692307693]"
GDZGRW51kbWtAdUIHCtEd8sAtqY2,-9.897222207652135,30.20000002119275,-40.097222228844885,30.20000002119275,-9.897222207652135,30.20000002119275,-40.097222228844885,30.20000002119275,0.0,0.0,108,0.007156000858596273,5.956790617095441,546.3713508036279,0.0,0.0,0.0,0.007957328961934712,5.356923029615341,613.8692183067734,0.0,0.0,0.0,0.007799850290246888,5.465079095648122,640.6185902662685,0.0,0.0,0.0,,,,,0.000801328103338439,-0.5998675874800998,67.49786750314547,83,18,0.21686746987951808,10,12.048192771084338,8,22,26.506024096385545,0.5555555555555556,0.4444444444444444,20.0,6.0,13.833333333333334,3.0230595245361753,20.0,12.0,11.0,12.0,15.0,13.0,6.0,83.0,65.0,0.0,63.0,75.90361445783132,,-4.106449106449105,1.0,7.0,6.0,1.0,"[65.0, 83.33333333333334, 90.9090909090909, 83.33333333333334, 66.66666666666666, 76.92307692307693]"
GE4hogtdLdTFbNasENgtm6SO3hC3,197.4541269799072,127.98746031539304,69.46666666451415,127.98746031539304,167.11220778804818,127.98746031539304,39.124747472655145,127.98746031539304,-0.05555555555555558,0.02777777777777779,107,0.005839262709396411,7.2510978103174475,496.9996320443785,0.0,0.0,0.0,0.004533382765989786,5.289417189273739,781.1092693854046,0.0,0.0,0.0,0.006074861384927607,7.016917106318661,666.6443699217297,0.0,0.0,0.0,,,,,-0.0013058799434066248,-1.9616806210437083,284.1096373410261,67,7,0.1044776119402985,3,4.477611940298507,4,11,16.417910447761194,0.42857142857142855,0.5714285714285714,12.0,6.0,11.166666666666666,1.0671873729054748,12.0,11.0,10.0,13.0,11.0,10.0,6.0,67.0,60.0,0.0,60.0,89.55223880597015,,-2.1367521367521363,-0.3333333333333339,5.0,4.0,1.0,"[83.33333333333334, 90.9090909090909, 100.0, 76.92307692307693, 90.9090909090909, 100.0]"
GEwkBw3YHaNp3TCh9YS9PKVfavz1,111.71388888193496,16.663888883259574,95.04999999867539,16.663888883259574,103.8238888814335,8.773888882758115,95.04999999867539,8.773888882758115,0.02777777777777779,0.02777777777777779,108,0.009093107488795308,3.9099373518573035,480.6895788691494,0.0,0.0,0.0,0.007130974169642886,5.977696420760969,380.0705254490387,0.0,0.0,0.0,0.00787666152665311,5.411785008937136,358.5235536577755,0.0,0.0,0.0,,,,,-0.001962133319152422,2.0677590689036656,-100.61905342011067,77,11,0.14285714285714285,7,9.090909090909092,4,23,29.87012987012987,0.6363636363636364,0.36363636363636365,18.0,6.0,12.833333333333334,2.4094720491334933,18.0,12.0,13.0,12.0,11.0,11.0,6.0,77.0,66.0,0.0,60.0,77.92207792207793,,16.446516446516426,3.0,11.0,10.0,1.0,"[55.55555555555556, 83.33333333333334, 76.92307692307693, 83.33333333333334, 90.9090909090909, 90.9090909090909]"
HSggdq91WiQp16bOj7V3dABkcgk2,79.67777778042682,38.197222222884534,41.48055555754229,38.197222222884534,79.67777778042682,38.197222222884534,41.48055555754229,38.197222222884534,0.0,0.0,108,0.009272524984497871,4.597107998272117,439.31378118062673,0.0,0.0,0.0,0.006721550353974504,6.341810523699737,301.3466031260974,0.0,0.0,0.0,0.008616774788177363,4.946955191274032,439.4338451579528,0.0,0.0,0.0,,,,,-0.002550974630523367,1.7447025254276198,-137.9671780545293,89,13,0.14606741573033707,7,7.865168539325842,6,24,26.96629213483146,0.5384615384615384,0.46153846153846156,17.0,6.0,14.833333333333334,4.017323597731316,17.0,11.0,11.0,21.0,18.0,11.0,6.0,89.0,76.0,1.0,71.0,79.7752808988764,,2.7346292052174306,-3.666666666666668,10.0,9.0,1.0,"[58.82352941176471, 90.9090909090909, 90.9090909090909, 85.71428571428571, 72.22222222222221, 90.9090909090909]"
HbydnnT1hUP3WagAy2TJAc6GqVs2,66.51388887564337,-27.39722221427496,93.91111108991834,-27.39722221427496,66.51388887564337,-27.39722221427496,93.91111108991834,-27.39722221427496,0.0,0.0,108,0.008484108681933746,5.024310787199564,654.2543164731015,0.0,0.0,0.0,0.007107363927367473,5.997553974445476,598.4392465193744,0.0,0.0,0.0,0.008409553495629692,5.0688539876184455,621.730114412884,0.0,0.0,0.0,,,,,-0.0013767447545662732,0.9732431872459122,-55.815069953727175,67,5,0.07462686567164178,2,2.9850746268656714,3,15,22.388059701492537,0.4,0.6,12.0,6.0,11.166666666666666,1.0671873729054748,12.0,11.0,11.0,13.0,10.0,10.0,6.0,67.0,62.0,0.0,60.0,89.55223880597015,,3.923853923853926,0.3333333333333339,5.0,4.0,1.0,"[83.33333333333334, 90.9090909090909, 90.9090909090909, 76.92307692307693, 100.0, 100.0]"
HyQM2xKwwuVfqidmRYF6TiRk90C2,43.21388889145521,1.9861111140086223,41.22777777744659,1.9861111140086223,43.21388889145521,1.9861111140086223,41.22777777744659,1.9861111140086223,0.0,0.0,108,0.008402032280788611,5.073391454098563,342.27475093383026,0.0,0.0,0.0,0.00769410328107116,5.54019061263222,328.98910450942844,0.0,0.0,0.0,0.008381970345309795,5.085534428580434,342.85408360941017,0.0,0.0,0.0,,,,,-0.0007079289997174512,0.4667991585336564,-13.285646424401818,83,10,0.12048192771084337,7,8.433734939759036,3,27,32.53012048192771,0.7,0.3,12.0,6.0,13.833333333333334,3.337497399083464,12.0,14.0,11.0,13.0,12.0,21.0,6.0,83.0,73.0,1.0,68.0,81.92771084337349,,0.0999000999001111,-3.0,5.0,4.0,1.0,"[83.33333333333334, 71.42857142857143, 90.9090909090909, 76.92307692307693, 83.33333333333334, 85.71428571428571]"
IaTJhUGICmO9xcL3605RW8QHneN2,120.53611110647512,101.10833333184314,19.427777774631977,101.10833333184314,151.15428570934705,123.70722222065638,27.447063488690674,123.70722222065638,0.0,0.02777777777777779,108,0.008225017084517177,4.322602646238903,394.7667735625007,0.0,0.0,0.0,0.006783328348495295,5.241303205200254,429.22033007506536,0.0,0.0,0.0,0.005882084971513475,7.2468859217185395,167.74533886693507,0.0,0.0,0.0,,,,,-0.0014416887360218823,0.9187005589613513,34.45355651256466,108,20,0.18518518518518517,13,12.037037037037036,7,36,33.33333333333333,0.65,0.35,16.0,6.0,18.0,11.284207253207171,16.0,43.0,13.0,13.0,12.0,11.0,6.0,108.0,88.0,0.0,81.0,75.0,,9.292048390885611,12.0,3.0,2.0,1.0,"[81.25, 65.11627906976744, 76.92307692307693, 76.92307692307693, 83.33333333333334, 90.9090909090909]"
JOBWLirr6KYf3GXJ3jPFKmd48S93,77.19722222950725,52.07222222950725,25.125,52.07222222950725,73.8928571497637,52.07222222950725,21.820634920256452,52.07222222950725,-0.02777777777777779,0.0,108,0.006955253699572509,6.12871947043904,480.1063679472372,0.0,0.0,0.0,0.0064698851748964635,5.495225904911535,581.2588010439802,0.0,0.0,0.0,0.00667649180806751,6.384610360624616,495.6628131724981,0.0,0.0,0.0,,,,,-0.0004853685246760456,-0.6334935655275054,101.15243309674298,75,11,0.14666666666666667,6,8.0,5,18,24.0,0.5454545454545454,0.45454545454545453,17.0,6.0,12.5,2.0615528128088303,17.0,12.0,12.0,11.0,11.0,12.0,6.0,75.0,64.0,0.0,64.0,85.33333333333334,,5.377302436125959,2.333333333333332,5.0,4.0,1.0,"[82.35294117647058, 83.33333333333334, 83.33333333333334, 90.9090909090909, 90.9090909090909, 83.33333333333334]"
Jp6aXC9KLjcFZBaQdZl4i9dUscl1,92.53888888325946,12.305555540654382,80.23333334260508,12.305555540654382,92.53888888325946,12.305555540654382,80.23333334260508,12.305555540654382,0.0,0.0,108,0.008330205549664025,5.117136487962465,405.0605146253361,0.0,0.0,0.0,0.006970231863322238,6.115549612448027,369.70641579374904,0.0,0.0,0.0,0.008730378485684117,4.882583136608761,444.1135146651991,0.0,0.0,0.0,,,,,-0.0013599736863417868,0.9984131244855625,-35.354098831587066,60,0,0.0,0,0.0,0,11,18.333333333333332,,,10.0,6.0,10.0,0.0,10.0,10.0,10.0,10.0,10.0,10.0,6.0,60.0,60.0,0.0,60.0,100.0,,0.0,0.0,3.0,2.0,1.0,"[100.0, 100.0, 100.0, 100.0, 100.0, 100.0]"
JvrZiMHtAfP6gvQtlevYWafKy0z2,185.44166657659753,22.27777783075976,163.16388874583777,22.27777783075976,198.71404751596015,22.27777783075976,176.4362696852004,22.27777783075976,-0.02777777777777779,0.0,108,0.005866548735142936,7.266077671026901,593.1134688277091,0.0,0.0,0.0,0.005589541305839749,6.3607152482707585,856.5322652675571,0.0,0.0,0.0,0.006592298579871677,6.466151108592984,740.660352521061,0.0,0.0,0.0,,,,,-0.00027700742930318687,-0.9053624227561423,263.41879643984805,75,12,0.16,6,8.0,6,17,22.666666666666664,0.5,0.5,13.0,6.0,12.5,1.2583057392117916,13.0,15.0,11.0,12.0,12.0,12.0,6.0,75.0,63.0,0.0,60.0,80.0,,5.167055167055182,1.0,6.0,5.0,1.0,"[76.92307692307693, 66.66666666666666, 90.9090909090909, 83.33333333333334, 83.33333333333334, 83.33333333333334]"
K26uNuY0VNPjJNF26wEx3bFg0kr2,83.8555555555763,64.61111111114997,19.244444444426335,64.61111111114997,88.84373015874098,69.59928571431465,19.244444444426335,69.59928571431465,0.02777777777777779,0.02777777777777779,108,0.007212331375084977,4.929540638927623,381.7675777016414,0.0,0.0,0.0,0.008228986447603106,5.180078864126614,487.3665231469778,0.0,0.0,0.0,0.0080617487000949,5.287537525191206,455.2945778383627,0.0,0.0,0.0,,,,,0.0010166550725181295,0.2505382251989907,105.59894544533637,70,7,0.1,7,10.0,0,26,37.142857142857146,1.0,0.0,10.0,6.0,11.666666666666666,1.247219128924647,10.0,12.0,11.0,11.0,14.0,12.0,6.0,70.0,63.0,0.0,60.0,85.71428571428571,,-9.523809523809518,-1.333333333333334,3.0,2.0,1.0,"[100.0, 83.33333333333334, 90.9090909090909, 90.9090909090909, 71.42857142857143, 83.33333333333334]"
K7ykiXe6CqQUKpEzs2nYrMTVuDA2,82.41666666667959,20.05555555556839,62.3611111111112,20.05555555556839,82.41666666667959,20.05555555556839,62.3611111111112,20.05555555556839,0.0,0.0,108,0.009673972952999238,4.406338427605128,480.0842404789164,0.0,0.0,0.0,0.007740712978232468,5.506831074900118,438.0917045412692,0.0,0.0,0.0,0.010723900163274222,3.9749343169377642,541.3729999572162,0.0,0.0,0.0,,,,,-0.0019332599747667696,1.10049264729499,-41.992535937647176,93,24,0.25806451612903225,7,7.526881720430108,17,25,26.881720430107524,0.2916666666666667,0.7083333333333334,30.0,6.0,15.5,6.576473218982953,30.0,12.0,14.0,14.0,11.0,12.0,6.0,93.0,69.0,0.0,60.0,64.51612903225806,,19.19191919191919,6.333333333333334,23.0,22.0,1.0,"[33.33333333333333, 83.33333333333334, 71.42857142857143, 71.42857142857143, 90.9090909090909, 83.33333333333334]"
KtKj6zUKc5Oogd2itg2jdwkchnf2,125.18333333337478,14.191666666418314,110.99166666695646,14.191666666418314,125.9907936508132,14.191666666418314,111.79912698439489,14.191666666418314,-0.02777777777777779,0.0,108,0.009535924757986309,4.4701274236369555,335.0049008558895,0.0,0.0,0.0,0.006999300500051888,5.079576254031466,346.1644988418199,0.0,0.0,0.0,0.010503177154356055,4.058467085146164,389.23428607493,0.0,0.0,0.0,,,,,-0.0025366242579344207,0.6094488303945109,11.159597985930418,66,3,0.045454545454545456,1,1.5151515151515151,2,11,16.666666666666664,0.3333333333333333,0.6666666666666666,12.0,6.0,11.0,1.0,12.0,12.0,12.0,10.0,10.0,10.0,6.0,66.0,63.0,0.0,60.0,90.9090909090909,,16.666666666666657,2.0,5.0,4.0,1.0,"[83.33333333333334, 83.33333333333334, 83.33333333333334, 100.0, 100.0, 100.0]"
LSLmd8jENtONZFVkIpRDX665Bu73,230.52777778440066,102.78888888491531,127.73888889948535,102.78888888491531,230.52777778440066,102.78888888491531,127.73888889948535,102.78888888491531,0.0,0.0,108,0.008749885680608466,4.871697794278946,588.3882531000331,0.0,0.0,0.0,0.0068177792843564945,6.252299611432286,643.7773200144977,0.0,0.0,0.0,0.005996413808365688,7.10871533097731,385.5485279014931,0.0,0.0,0.0,,,,,-0.0019321063962519716,1.38060181715334,55.38906691446459,82,15,0.18292682926829268,9,10.975609756097562,6,22,26.82926829268293,0.6,0.4,11.0,6.0,13.666666666666666,3.986086914367133,11.0,11.0,15.0,22.0,11.0,12.0,6.0,82.0,67.0,0.0,63.0,76.82926829268293,,-5.050505050505038,-2.666666666666666,4.0,3.0,1.0,"[90.9090909090909, 90.9090909090909, 66.66666666666666, 59.09090909090909, 90.9090909090909, 83.33333333333334]"
Lhv9P8ZrkDSIB7BGwooAqfu8SGF3,1.7555555535686835,-49.899999997682016,51.6555555512507,-49.899999997682016,1.7555555535686835,-49.899999997682016,51.6555555512507,-49.899999997682016,0.0,0.0,108,0.009465913024139294,4.503189355502146,486.0466511277168,0.0,0.0,0.0,0.009054710963655946,4.707692928190624,466.32118365322367,0.0,0.0,0.0,0.010527127813057303,4.0492335162437305,480.4213485898356,0.0,0.0,0.0,,,,,-0.00041120206048334863,0.20450357268847785,-19.725467474493144,71,8,0.11267605633802817,6,8.450704225352112,2,19,26.76056338028169,0.75,0.25,12.0,6.0,11.833333333333334,1.4624940645653537,12.0,11.0,11.0,11.0,11.0,15.0,6.0,71.0,63.0,0.0,60.0,84.50704225352112,,-5.555555555555557,-1.0,5.0,4.0,1.0,"[83.33333333333334, 90.9090909090909, 90.9090909090909, 90.9090909090909, 90.9090909090909, 66.66666666666666]"
LliUMEIsrCVZ88YFQfevan2Og4z1,102.88611111109549,55.413888888866836,47.47222222222865,55.413888888866836,106.88666666665051,59.583809523790705,47.30285714285981,59.583809523790705,-0.02777777777777779,-0.02777777777777779,108,0.009961152050869471,4.279304095824184,320.3003330759083,0.0,0.0,0.0,0.007791347038046319,4.563200745812136,359.4510336696282,0.0,0.0,0.0,0.006554951099612319,5.4239124098114,197.9755595291653,0.0,0.0,0.0,,,,,-0.0021698050128231517,0.28389664998795183,39.150700593719876,97,18,0.18556701030927836,13,13.402061855670103,5,34,35.051546391752574,0.7222222222222222,0.2777777777777778,10.0,6.0,16.166666666666668,7.924995618645827,10.0,33.0,11.0,15.0,17.0,11.0,6.0,97.0,79.0,0.0,72.0,74.22680412371135,,4.884135472370758,3.666666666666666,3.0,2.0,1.0,"[100.0, 48.484848484848484, 90.9090909090909, 86.66666666666667, 76.47058823529412, 90.9090909090909]"
M4Km1Q2P2oPliChDQkwl6k20FUI3,160.44999999470178,33.349999970859926,127.10000002384186,33.349999970859926,160.44999999470178,30.59484124372875,129.85515875097303,30.59484124372875,0.0,-0.02777777777777779,108,0.010485413794505544,4.065342542108357,487.847323219199,0.0,0.0,0.0,0.008174129507641471,5.214842599516453,526.6455434627933,0.0,0.0,0.0,0.008951958093659566,3.971587025197954,497.41021620860863,0.0,0.0,0.0,,,,,-0.0023112842868640727,1.1495000574080967,38.7982202435943,102,18,0.17647058823529413,10,9.803921568627452,8,28,27.450980392156865,0.5555555555555556,0.4444444444444444,20.0,6.0,17.0,3.3166247903554,20.0,21.0,18.0,11.0,15.0,17.0,6.0,102.0,84.0,3.0,80.0,78.43137254901961,,-2.0903715021362217,5.333333333333334,4.0,3.0,1.0,"[80.0, 71.42857142857143, 88.88888888888889, 90.9090909090909, 66.66666666666666, 76.47058823529412]"
O61Eik2zvrSQLMNpFbTNEgjWwMr2,-94.169444443658,-67.35833333308494,-26.81111111057305,-67.35833333308494,-94.169444443658,-61.969920634578784,-32.19952380907921,-61.969920634578784,0.0,-0.02777777777777779,108,0.006755983282474624,6.309488491629244,423.7681639962973,0.0,0.0,0.0,0.00741534839851042,5.7484552956373545,406.7449380544254,0.0,0.0,0.0,0.006889633168112161,5.1604315857409,462.0818092669795,0.0,0.0,0.0,,,,,0.0006593651160357967,-0.5610331959918895,-17.023225941871885,78,11,0.14102564102564102,7,8.974358974358974,4,24,30.76923076923077,0.6363636363636364,0.36363636363636365,15.0,6.0,13.0,1.5275252316519468,15.0,14.0,14.0,11.0,11.0,13.0,6.0,78.0,67.0,0.0,60.0,76.92307692307693,,16.405816405816424,2.666666666666668,8.0,7.0,1.0,"[66.66666666666666, 71.42857142857143, 71.42857142857143, 90.9090909090909, 90.9090909090909, 76.92307692307693]"
OExlWyngGfPrScDYjaRcv5PIAet1,194.47500001059643,52.62500000662271,141.85000000397372,52.62500000662271,194.47500001059643,52.62500000662271,141.85000000397372,52.62500000662271,0.0,0.0,108,0.008159609836668254,5.224122185212063,362.32419075871763,0.0,0.0,0.0,0.006893920975146213,6.183244473513729,432.02860515819043,0.0,0.0,0.0,0.009281921800538823,4.592453985977201,485.66261746619443,0.0,0.0,0.0,,,,,-0.0012656888615220404,0.9591222883016659,69.7044143994728,66,4,0.06060606060606061,3,4.545454545454546,1,16,24.242424242424242,0.75,0.25,11.0,6.0,11.0,1.0,11.0,13.0,11.0,10.0,11.0,10.0,6.0,66.0,62.0,0.0,60.0,90.9090909090909,,10.722610722610696,1.333333333333332,4.0,3.0,1.0,"[90.9090909090909, 76.92307692307693, 90.9090909090909, 100.0, 90.9090909090909, 100.0]"
ORvIk1xRWIQmKuLVe6GXNouvAXx2,311.75000001324554,137.47222222553353,174.277777787712,137.47222222553353,292.52020203224345,147.11396825729855,145.4062337749449,147.11396825729855,-0.08333333333333337,-0.02777777777777779,108,0.007106904318957354,5.997941840402732,412.7306327506417,0.0,0.0,0.0,0.004473033615673675,5.360780800743498,616.1480623875026,0.0,0.0,0.0,0.005735869695765079,6.198446356119993,459.79766057093815,0.0,0.0,0.0,,,,,-0.0026338707032836795,-0.637161039659234,203.4174296368609,101,24,0.2376237623762376,17,16.831683168316832,7,37,36.633663366336634,0.7083333333333334,0.2916666666666667,10.0,6.0,16.833333333333332,7.289642576209679,10.0,12.0,15.0,23.0,30.0,11.0,6.0,101.0,77.0,0.0,66.0,65.34653465346535,,-20.75977162933684,-8.999999999999998,3.0,2.0,1.0,"[100.0, 83.33333333333334, 66.66666666666666, 43.47826086956522, 53.333333333333336, 90.9090909090909]"
P8mTl71XaYNvFMTCvlKpzzUdc9W2,171.71944445040492,55.100000002317984,116.61944444808694,55.100000002317984,174.84634921337874,55.100000002317984,119.74634921106076,55.100000002317984,-0.02777777777777779,0.0,108,0.00870082839741393,4.899165553372226,559.1081915659743,0.0,0.0,0.0,0.006258011269176739,5.681274623139391,578.9662230019148,0.0,0.0,0.0,0.00831504462543585,5.126466626531043,588.2205970150178,0.0,0.0,0.0,,,,,-0.0024428171282371916,0.7821090697671647,19.858031435940575,80,11,0.1375,7,8.75,4,25,31.25,0.6363636363636364,0.36363636363636365,10.0,6.0,13.333333333333334,2.134374745810949,10.0,12.0,15.0,16.0,15.0,12.0,6.0,80.0,69.0,0.0,60.0,75.0,,-12.5,-2.0,3.0,2.0,1.0,"[100.0, 83.33333333333334, 66.66666666666666, 62.5, 66.66666666666666, 83.33333333333334]"
P9bS6GGJcIXivbMWo4ibJ5jgUPG2,411.40555555952926,203.12222222818264,208.28333333134663,203.12222222818264,424.57323232895203,222.57920635418282,201.99402597476922,222.57920635418282,-0.08333333333333337,-0.02777777777777779,108,0.008087088027443417,5.270970048274456,424.43665691830523,0.0,0.0,0.0,0.004005569069918298,5.986403507073417,543.1287441179747,0.0,0.0,0.0,0.005149531192046495,6.904216964411608,330.72104134847746,0.0,0.0,0.0,,,,,-0.004081518957525118,0.7154334587989615,118.69208719966952,68,7,0.10294117647058823,7,10.294117647058822,0,19,27.941176470588236,1.0,0.0,10.0,6.0,11.333333333333334,0.9428090415820634,10.0,11.0,12.0,13.0,11.0,11.0,6.0,68.0,61.0,0.0,60.0,88.23529411764706,,-5.167055167055153,-0.6666666666666661,3.0,2.0,1.0,"[100.0, 90.9090909090909, 83.33333333333334, 76.92307692307693, 90.9090909090909, 90.9090909090909]"
PLreonkqaMeFc0UqxKUelH44UQu1,-17.997222223629592,-96.61666666674944,78.61944444311985,-96.61666666674944,-16.9934126996568,-86.63055555566268,69.63714285600588,-86.63055555566268,-0.02777777777777779,-0.05555555555555558,108,0.007212248730659643,5.910333983519519,284.3694996556854,0.0,0.0,0.0,0.007356966877133893,4.832627522817524,355.5448929653186,0.0,0.0,0.0,0.007989121558854164,3.5463390100958336,398.8128940855221,0.0,0.0,0.0,,,,,0.00014471814647424967,-1.0777064607019948,71.1753933096332,96,22,0.22916666666666666,15,15.625,7,35,36.45833333333333,0.6818181818181818,0.3181818181818182,12.0,6.0,16.0,7.280109889280518,12.0,32.0,11.0,15.0,12.0,14.0,6.0,96.0,74.0,0.0,64.0,66.66666666666666,,1.1453823953823985,4.666666666666666,5.0,4.0,1.0,"[83.33333333333334, 43.75, 90.9090909090909, 66.66666666666666, 83.33333333333334, 71.42857142857143]"
PkpTH7pWpEOG9A86xSloOSozwTk2,-8.293650806896267,54.11428571428564,-62.40793652118191,54.11428571428564,-8.293650806896267,54.11428571428564,-62.40793652118191,54.11428571428564,0.02777777777777779,0.0,106,0.00679510896910467,6.231109057777411,917.6718479367488,0.0,0.0,0.0,0.006133362222229415,6.949988803191667,803.9433973842971,0.0,0.0,0.0,0.0059217614157451495,7.150079524209397,830.722409690606,0.0,0.0,0.0,,,,,-0.0006617467468752547,0.7188797454142559,-113.7284505524517,128,67,0.5234375,41,32.03125,26,63,49.21875,0.6119402985074627,0.3880597014925373,20.0,3.0,42.666666666666664,25.315783394730033,20.0,78.0,30.0,,,,2.0,128.0,61.0,0.0,38.0,29.6875,,0.0,0.0,3.0,2.0,1.0,"[80.0, 28.205128205128204]"
QG6VXg7od2fHJ1SF9ZzYBqUa1FY2,166.37499999968952,107.22222222201526,59.15277777767426,107.22222222201526,164.8961904758736,105.74341269819934,59.15277777767426,105.74341269819934,0.02777777777777779,0.02777777777777779,108,0.007655271740989645,4.644313333062416,352.74855864527575,0.0,0.0,0.0,0.006995053033539399,6.093849262618762,380.6500771246332,0.0,0.0,0.0,0.006790124285476904,6.277764143667557,295.549768301968,0.0,0.0,0.0,,,,,-0.0006602187074502457,1.4495359295563457,27.901518479357435,74,10,0.13513513513513514,6,8.108108108108109,4,15,20.27027027027027,0.6,0.4,11.0,6.0,12.333333333333334,0.74535599249993,11.0,13.0,13.0,12.0,13.0,12.0,6.0,74.0,64.0,0.0,60.0,81.08108108108108,,-0.3885003885003897,0.0,4.0,3.0,1.0,"[90.9090909090909, 76.92307692307693, 76.92307692307693, 83.33333333333334, 76.92307692307693, 83.33333333333334]"
QbOEVCaZLUMOgltUdXm58oZOALv2,95.59444443881512,17.92777777380411,77.66666666501101,17.92777777380411,96.93293650330043,17.92777777380411,79.00515872949632,17.92777777380411,-0.02777777777777779,0.0,108,0.007356559564683299,5.794393207261184,653.4674228240095,0.0,0.0,0.0,0.006173123584983935,5.759398807659974,692.7119810410254,0.0,0.0,0.0,0.0062713432078921666,6.797076376998398,527.4182486469592,0.0,0.0,0.0,,,,,-0.0011834359796993633,-0.03499439960121009,39.24455821701588,100,24,0.24,12,12.0,12,31,31.0,0.5,0.5,23.0,6.0,16.666666666666668,4.496912521077347,23.0,13.0,11.0,22.0,17.0,14.0,6.0,100.0,76.0,0.0,67.0,67.0,,-8.372616301005053,-2.0000000000000018,3.0,2.0,1.0,"[56.52173913043478, 76.92307692307693, 90.9090909090909, 45.45454545454545, 82.35294117647058, 71.42857142857143]"
Qg9GDwQ9hBNkDLt50CNLd4NqRlX2,95.19166669580659,11.119444443119846,84.07222225268674,11.119444443119846,95.19166669580659,11.119444443119846,84.07222225268674,11.119444443119846,0.0,0.0,108,0.00835141439232558,5.104141258944655,849.8502680810014,0.0,0.0,0.0,0.007584779712536483,5.620044402866125,881.9483319364153,0.0,0.0,0.0,0.007472080575970142,5.704809836700499,786.9288797705187,0.0,0.0,0.0,,,,,-0.000766634679789097,0.5159031439214701,32.0980638554139,69,8,0.11594202898550725,7,10.144927536231885,1,18,26.08695652173913,0.875,0.125,10.0,6.0,11.5,1.2583057392117916,10.0,14.0,11.0,11.0,11.0,12.0,6.0,69.0,61.0,0.0,60.0,86.95652173913044,,0.9379509379509444,0.3333333333333321,3.0,2.0,1.0,"[100.0, 71.42857142857143, 90.9090909090909, 90.9090909090909, 90.9090909090909, 83.33333333333334]"
QreA2rLiUhV3YHeMfuHMPdGbpJ53,321.86944444974256,258.86666667461395,63.00277777512861,258.86666667461395,334.1583333485055,258.86666667461395,75.29166667389154,258.86666667461395,-0.08333333333333337,0.0,108,0.007867440174731273,5.418128110757347,557.9679388079687,0.0,0.0,0.0,0.004674146308312386,5.130124550303471,769.5861388462858,0.0,0.0,0.0,0.006039341032980333,7.058187066706755,583.48953716101,0.0,0.0,0.0,,,,,-0.003193293866418887,-0.288003560453876,211.61820003831713,95,21,0.22105263157894736,11,11.578947368421053,10,29,30.526315789473685,0.5238095238095238,0.47619047619047616,21.0,6.0,15.833333333333334,5.30461015427985,21.0,14.0,11.0,13.0,25.0,11.0,6.0,95.0,74.0,1.0,69.0,72.63157894736842,,11.291819291819294,-0.9999999999999982,14.0,13.0,1.0,"[47.61904761904761, 71.42857142857143, 90.9090909090909, 76.92307692307693, 76.0, 90.9090909090909]"
Rc706mP0TSeIoIpMYH1SpRXjOxA2,90.38333333863147,-34.25277802679284,124.63611136542431,-34.25277802679284,67.33714286259249,-48.82301612959975,116.16015899219224,-48.82301612959975,0.0,0.02777777777777779,108,0.006581221263230886,5.402261858833181,584.6001970842324,0.0,0.0,0.0,0.006650379926401046,5.346082631121866,659.957474213584,0.0,0.0,0.0,0.006792694814123437,6.275388477895863,474.31485586906956,0.0,0.0,0.0,,,,,6.915866317016e-05,-0.056179227711314894,75.35727712935159,61,1,0.01639344262295082,1,1.639344262295082,0,13,21.311475409836063,1.0,0.0,10.0,6.0,10.166666666666666,0.3726779962499649,10.0,11.0,10.0,10.0,10.0,10.0,6.0,61.0,60.0,0.0,60.0,98.36065573770492,,3.0303030303030454,0.3333333333333339,3.0,2.0,1.0,"[100.0, 90.9090909090909, 100.0, 100.0, 100.0, 100.0]"
Rmd4rr2vGjOoLvdfYd4EdYyxK3m1,182.7166666918331,46.99166667461395,135.72500001721914,46.99166667461395,182.7166666918331,46.99166667461395,135.72500001721914,46.99166667461395,0.0,0.0,108,0.008176287720549734,5.213466089662899,548.07035353229,0.0,0.0,0.0,0.00766753773905438,5.559385583887621,688.2899934313115,0.0,0.0,0.0,0.007612529158137506,5.599558029258484,547.4528364374275,0.0,0.0,0.0,,,,,-0.0005087499814953539,0.3459194942247219,140.21963989902144,81,11,0.13580246913580246,6,7.4074074074074066,5,23,28.39506172839506,0.5454545454545454,0.45454545454545453,13.0,6.0,13.5,3.0413812651491097,13.0,20.0,11.0,13.0,13.0,11.0,6.0,81.0,70.0,1.0,66.0,81.48148148148148,,-1.025641025641022,2.333333333333332,6.0,5.0,1.0,"[76.92307692307693, 80.0, 90.9090909090909, 76.92307692307693, 76.92307692307693, 90.9090909090909]"
Ru3Qf6pXZua1DfNkQdhbor6iJ403,99.04166666665708,156.21944444443227,-57.17777777777519,156.21944444443227,106.68536796536364,142.95428571427306,-36.268917748909416,142.95428571427306,-0.05555555555555558,0.0,108,0.00674552770269138,5.270674464906393,564.0337901916666,0.0,0.0,0.0,0.00500036627662767,4.795439254133101,640.1032736938041,0.0,0.0,0.0,0.004795891277414831,7.413320811154591,346.0182806309456,0.0,0.0,0.0,,,,,-0.0017451614260637106,-0.4752352107732918,76.06948350213747,86,13,0.1511627906976744,8,9.30232558139535,5,28,32.55813953488372,0.6153846153846154,0.38461538461538464,10.0,6.0,14.333333333333334,4.921607686744467,10.0,25.0,13.0,12.0,14.0,12.0,6.0,86.0,73.0,1.0,69.0,80.23255813953489,,-4.942612942612939,3.333333333333334,3.0,2.0,1.0,"[100.0, 76.0, 76.92307692307693, 83.33333333333334, 71.42857142857143, 83.33333333333334]"
SOhR7IO689NQCPQu56SjATO8FR92,316.35833333342134,183.29722222227917,133.06111111114217,183.29722222227917,354.80779569901165,190.7830952381479,164.02470046086376,190.7830952381479,-0.13888888888888884,-0.02777777777777779,108,0.00815973700544889,5.224040767729153,492.6894471860308,0.0,0.0,0.0,0.003734422058994123,4.885760803754716,686.2728742004906,0.0,0.0,0.0,0.006175210576165265,5.757452345369645,554.4154400306227,0.0,0.0,0.0,,,,,-0.004425314946454767,-0.33827996397443627,193.5834270144598,100,26,0.26,17,17.0,9,36,36.0,0.6538461538461539,0.34615384615384615,14.0,6.0,16.666666666666668,5.9907335852038095,14.0,12.0,11.0,14.0,21.0,28.0,6.0,100.0,74.0,0.0,66.0,66.0,,-23.16017316017317,-8.666666666666666,7.0,6.0,1.0,"[71.42857142857143, 83.33333333333334, 90.9090909090909, 71.42857142857143, 47.61904761904761, 57.14285714285714]"
SPCT9D90pRa1ihXS5jEw6vCmquI3,95.06666667097147,143.71944444709357,-48.65277777612209,143.71944444709357,98.05816993852659,146.9553968277952,-48.89722688926861,146.9553968277952,-0.05555555555555558,-0.02777777777777779,108,0.009649867060786934,4.417345700401498,382.3155304785858,0.0,0.0,0.0,0.006003033439289642,4.719636118487921,353.47104381815467,0.0,0.0,0.0,0.007070348318286887,5.028533109597716,415.94306981731035,0.0,0.0,0.0,,,,,-0.0036468336214972924,0.30229041808642343,-28.84448666043113,128,33,0.2578125,10,7.8125,23,27,21.09375,0.30303030303030304,0.696969696969697,65.0,6.0,21.333333333333332,19.550504398153578,65.0,14.0,11.0,13.0,12.0,13.0,5.0,128.0,95.0,2.0,80.0,62.5,,0.0,0.0,8.0,7.0,1.0,"[52.307692307692314, 71.42857142857143, 90.9090909090909, 76.92307692307693, 83.33333333333334]"
SpSfX0ZcfcPLdlOENlfdfvEPwru2,10.722222222228652,-6.416666666660262,17.138888888888914,-6.416666666660262,1.8055555555619094,-6.416666666660262,8.222222222222172,-6.416666666660262,-0.02777777777777779,0.0,108,0.007377768731337774,5.777735833511807,471.5073169386594,0.0,0.0,0.0,0.007045291464408774,5.04641728372805,515.7556000314187,0.0,0.0,0.0,0.008268476499525628,5.15533892765599,542.6908022725538,0.0,0.0,0.0,,,,,-0.00033247726692900003,-0.7313185497837571,44.248283092759266,72,9,0.125,6,8.333333333333332,3,20,27.77777777777778,0.6666666666666666,0.3333333333333333,11.0,6.0,12.0,1.0,11.0,13.0,13.0,13.0,11.0,11.0,6.0,72.0,63.0,0.0,60.0,83.33333333333334,,4.662004662004662,0.6666666666666679,4.0,3.0,1.0,"[90.9090909090909, 76.92307692307693, 76.92307692307693, 76.92307692307693, 90.9090909090909, 90.9090909090909]"
SvtOrPatsnWjicxtyndEzSdO5Wp1,38.56944443451039,30.64999998278097,7.919444451729419,30.64999998278097,38.56944443451039,28.72142855212803,9.848015882382356,28.72142855212803,0.0,-0.02777777777777779,108,0.011023183453251168,3.867013458606723,586.6186633093001,0.0,0.0,0.0,0.007140896370122033,5.969390474390085,389.3577097663519,0.0,0.0,0.0,0.006695729854000617,5.309873813629349,411.3879194262264,0.0,0.0,0.0,,,,,-0.0038822870831291354,2.1023770157833623,-197.26095354294824,86,17,0.19767441860465115,9,10.465116279069768,8,23,26.744186046511626,0.5294117647058824,0.47058823529411764,19.0,6.0,14.333333333333334,2.981423969999719,19.0,11.0,15.0,17.0,11.0,13.0,6.0,86.0,69.0,0.0,60.0,69.76744186046511,,5.48278690693553,1.333333333333334,12.0,11.0,1.0,"[52.63157894736842, 90.9090909090909, 66.66666666666666, 58.82352941176471, 90.9090909090909, 76.92307692307693]"
ToTCRJ4EX9OL6UlJqmDkaEbggWF2,15.444444444444457,60.45277777810895,-45.008333333664496,60.45277777810895,15.444444444444457,60.45277777810895,-45.008333333664496,60.45277777810895,0.0,0.0,108,0.007556725671005415,5.640908592721448,515.0717593719895,0.0,0.0,0.0,0.0065453114686157,6.512569947939934,409.7066668606445,0.0,0.0,0.0,0.007672863336941305,5.555526913295169,586.426314420549,0.0,0.0,0.0,,,,,-0.0010114142023897148,0.8716613552184853,-105.36509251134504,78,11,0.14102564102564102,8,10.256410256410255,3,24,30.76923076923077,0.7272727272727273,0.2727272727272727,14.0,6.0,13.0,0.816496580927726,14.0,14.0,12.0,13.0,13.0,12.0,6.0,78.0,67.0,0.0,60.0,76.92307692307693,,3.663003663003664,0.6666666666666679,7.0,6.0,1.0,"[71.42857142857143, 71.42857142857143, 83.33333333333334, 76.92307692307693, 76.92307692307693, 83.33333333333334]"
UK6MLdHbCaS4xIz2f3vGdpkbBzG3,108.27777778191694,0.6527777810890711,107.62500000082787,0.6527777810890711,105.31993464473021,0.6339682568633407,104.68596638786687,0.6339682568633407,-0.05555555555555558,-0.02777777777777779,108,0.01074632846736017,3.966638363966223,390.4576544593639,0.0,0.0,0.0,0.006886844901912758,4.113949688730927,409.713940183976,0.0,0.0,0.0,0.009402331866633869,3.7813471295416687,380.60867736206586,0.0,0.0,0.0,,,,,-0.003859483565447413,0.1473113247647042,19.2562857246121,128,11,0.0859375,0,0.0,11,5,3.90625,0.0,1.0,93.0,5.0,25.6,33.755592129305036,93.0,10.0,10.0,10.0,5.0,,4.0,128.0,117.0,8.0,117.0,91.40625,,0.0,0.0,3.0,2.0,1.0,"[88.17204301075269, 100.0, 100.0, 100.0]"
Ub7nV8F55kPruh35ZpUcKoBUyn63,151.38333333614798,53.836111113428956,97.54722222271903,53.836111113428956,138.06388889137236,53.836111113428956,84.2277777779434,53.836111113428956,-0.02777777777777779,0.0,108,0.006329115312648907,6.735032728069023,452.9482942366226,0.0,0.0,0.0,0.006028832246121124,5.897241648707146,646.3849155115167,0.0,0.0,0.0,0.0060424348357811285,7.054573185960171,456.53504506714046,0.0,0.0,0.0,,,,,-0.00030028306652778343,-0.8377910793618772,193.43662127489415,81,14,0.1728395061728395,9,11.11111111111111,5,24,29.629629629629626,0.6428571428571429,0.35714285714285715,15.0,6.0,13.5,2.217355782608345,15.0,12.0,16.0,16.0,11.0,11.0,6.0,81.0,67.0,0.0,60.0,74.07407407407408,,10.606060606060607,1.666666666666668,8.0,7.0,1.0,"[66.66666666666666, 83.33333333333334, 62.5, 62.5, 90.9090909090909, 90.9090909090909]"
UbqFccqQZZgcqJIqCn3ErH9zQdM2,44.66388890478345,-7.794444438483993,52.45833334326744,-7.794444438483993,30.656209166922622,-7.57394957402164,38.23015874094426,-7.57394957402164,0.05555555555555558,0.02777777777777779,108,0.0061509221737620036,4.606160286244326,491.5629626460212,0.0,0.0,0.0,0.006188606362265888,6.887947992673085,314.000491094126,0.0,0.0,0.0,0.006748511652929195,5.268343961362523,448.1657272085353,0.0,0.0,0.0,,,,,3.768418850388401e-05,2.2817877064287586,-177.56247155189521,90,20,0.2222222222222222,7,7.777777777777778,13,18,20.0,0.35,0.65,30.0,6.0,15.0,6.733003292241386,30.0,12.0,12.0,13.0,12.0,11.0,6.0,90.0,70.0,0.0,64.0,71.11111111111111,,12.610722610722618,6.0,11.0,10.0,1.0,"[46.666666666666664, 83.33333333333334, 83.33333333333334, 76.92307692307693, 83.33333333333334, 90.9090909090909]"
UbwuSMtBsHdW3Ji41opk3GInMqi2,52.158333333260885,48.83055555561759,3.3277777776432913,48.83055555561759,61.948253968179074,48.83055555561759,13.11769841256148,48.83055555561759,-0.02777777777777779,0.0,108,0.009904680003392471,4.303702770388646,505.7677555570566,0.0,0.0,0.0,0.007250230972697562,4.90377213481599,459.5445354360783,0.0,0.0,0.0,0.00889648545874906,4.791420046496313,504.01240464185037,0.0,0.0,0.0,,,,,-0.002654449030694909,0.6000693644273447,-46.22322012097828,77,9,0.11688311688311688,6,7.792207792207792,3,22,28.57142857142857,0.6666666666666666,0.3333333333333333,14.0,6.0,12.833333333333334,1.7716909687891083,14.0,11.0,12.0,11.0,13.0,16.0,6.0,77.0,68.0,0.0,63.0,81.81818181818183,,1.137057387057382,-1.0,7.0,6.0,1.0,"[71.42857142857143, 90.9090909090909, 83.33333333333334, 90.9090909090909, 76.92307692307693, 81.25]"
VwTymW8T68MfpnJvZ2X97ILqDWS2,263.4111111213764,223.07500001125857,40.33611111011783,223.07500001125857,305.0194444540474,223.07500001125857,81.94444444278884,223.07500001125857,-0.11111111111111116,0.0,108,0.008851400236890669,4.815825477279197,544.8246586259229,0.0,0.0,0.0,0.0036881222390024943,5.638212095275482,519.8116148813942,0.0,0.0,0.0,0.006818066814917015,6.252035940327174,586.6260300970916,0.0,0.0,0.0,,,,,-0.005163277997888175,0.8223866179962851,-25.01304374452866,81,13,0.16049382716049382,10,12.345679012345679,3,30,37.03703703703704,0.7692307692307693,0.23076923076923078,18.0,6.0,13.5,2.362907813126304,18.0,11.0,12.0,15.0,13.0,12.0,6.0,81.0,68.0,0.0,64.0,79.01234567901234,,-8.365708365708372,0.3333333333333321,6.0,5.0,1.0,"[77.77777777777779, 90.9090909090909, 83.33333333333334, 66.66666666666666, 76.92307692307693, 83.33333333333334]"
WKzqsLX1lNVSdbGgYTTVGtFwsrF3,91.02777777774554,44.49999999998704,46.5277777777585,44.49999999998704,91.02777777774554,44.49999999998704,46.5277777777585,44.49999999998704,0.0,0.0,108,0.0069391239225574846,6.142965487594673,530.3571551816801,0.0,0.0,0.0,0.00581003377850452,7.336755756587903,437.87407111837183,0.0,0.0,0.0,0.00682309460332104,6.247428952496898,560.0966103607976,0.0,0.0,0.0,,,,,-0.001129090144052965,1.1937902689932294,-92.4830840633083,88,7,0.07954545454545454,6,6.8181818181818175,1,20,22.727272727272727,0.8571428571428571,0.14285714285714285,10.0,6.0,14.666666666666666,4.988876515698588,10.0,11.0,23.0,13.0,11.0,20.0,6.0,88.0,81.0,0.0,80.0,90.9090909090909,,-6.460423634336678,0.0,3.0,2.0,1.0,"[100.0, 90.9090909090909, 91.30434782608695, 76.92307692307693, 90.9090909090909, 95.0]"
WbOfW9KmUkPQK8o5hlHJnJFdpp92,21.58774510043031,91.9238562088924,-70.33611110846209,91.9238562088924,-0.6522727249321179,85.31082251080966,-85.96309523574178,85.31082251080966,0.08333333333333337,0.05555555555555558,106,0.005928244807654737,5.8980485369829525,691.2693719331836,0.0,0.0,0.0,0.005581199194256065,7.63756986388927,493.59151460037947,0.0,0.0,0.0,0.004632453892830302,7.674869828692875,462.41197726920757,0.0,0.0,0.0,,,,,-0.0003470456133986728,1.7395213269063179,-197.67785733280414,98,17,0.17346938775510204,6,6.122448979591836,11,20,20.408163265306122,0.35294117647058826,0.6470588235294118,27.0,6.0,16.333333333333332,5.7638721552635275,27.0,11.0,14.0,21.0,12.0,13.0,6.0,98.0,81.0,2.0,74.0,75.51020408163265,,8.12459145792478,1.9999999999999984,13.0,12.0,1.0,"[59.25925925925925, 90.9090909090909, 71.42857142857143, 85.71428571428571, 83.33333333333334, 76.92307692307693]"
WcTsIpSoEhYeIBSNjAbbdaNSBya2,5.938888889633745,32.51944444204355,-26.580555552409805,32.51944444204355,5.938888889633745,32.51944444204355,-26.580555552409805,32.51944444204355,0.0,0.0,108,0.008088014166912587,5.270366481898114,724.648101848622,0.0,0.0,0.0,0.006458301499255987,6.60031105319625,550.5499450466184,0.0,0.0,0.0,0.007255067812163472,5.8754514601431165,680.2578413198385,0.0,0.0,0.0,,,,,-0.0016297126676566003,1.3299445712981353,-174.0981568020036,94,20,0.2127659574468085,13,13.829787234042554,7,34,36.17021276595745,0.65,0.35,14.0,6.0,15.666666666666666,2.6874192494328497,14.0,18.0,16.0,14.0,20.0,12.0,6.0,94.0,74.0,1.0,67.0,71.27659574468085,,16.75925925925926,0.6666666666666661,7.0,6.0,1.0,"[71.42857142857143, 55.55555555555556, 62.5, 71.42857142857143, 85.0, 83.33333333333334]"
WeHQDy9BWldTlaQDVVlsJNCqwxA2,162.5000000000291,54.86111111114337,107.63888888888573,54.86111111114337,162.5000000000291,54.86111111114337,107.63888888888573,54.86111111114337,0.0,0.0,108,0.008312215020942653,5.12821175378823,533.7331829649657,0.0,0.0,0.0,0.005896777449224327,7.2288294983932975,400.21774895186377,0.0,0.0,0.0,0.006683840802372664,6.377590375174902,424.66227029416916,0.0,0.0,0.0,,,,,-0.0024154375717183266,2.100617744605067,-133.51543401310198,107,26,0.24299065420560748,13,12.149532710280374,13,38,35.51401869158878,0.5,0.5,25.0,6.0,17.833333333333332,5.814254514170802,25.0,26.0,18.0,14.0,11.0,13.0,6.0,107.0,81.0,1.0,66.0,61.6822429906542,,27.081215081215085,10.333333333333334,7.0,6.0,1.0,"[64.0, 38.46153846153847, 55.55555555555556, 71.42857142857143, 90.9090909090909, 76.92307692307693]"
Wfo71fsX1VVfPZnzhT7HEYBTwnq1,175.96388889683612,30.736111124356626,145.2277777724795,30.736111124356626,175.96388889683612,30.736111124356626,145.2277777724795,30.736111124356626,0.0,0.0,108,0.00982853550969644,4.337044794553502,490.2239627729984,0.0,0.0,0.0,0.007642456005404485,5.577630900363571,525.91996454855,0.0,0.0,0.0,0.009798344286400017,4.350408347008043,519.6361371797315,0.0,0.0,0.0,,,,,-0.002186079504291956,1.2405861058100696,35.696001775551565,72,12,0.16666666666666666,9,12.5,3,23,31.944444444444443,0.75,0.25,13.0,6.0,12.0,1.0,13.0,11.0,13.0,11.0,13.0,11.0,6.0,72.0,60.0,0.0,60.0,83.33333333333334,,4.662004662004662,0.6666666666666679,6.0,5.0,1.0,"[76.92307692307693, 90.9090909090909, 76.92307692307693, 90.9090909090909, 76.92307692307693, 90.9090909090909]"
WnC6Uscb5VMIr43GASKiUCO3AYH2,22.64722222420903,2.4972222223877907,20.15000000182124,2.4972222223877907,22.64722222420903,2.4972222223877907,20.15000000182124,2.4972222223877907,0.0,0.0,108,0.008187555688147658,5.206291156238478,335.42014234545144,0.0,0.0,0.0,0.008075200175945842,5.278729671295158,349.40589337118985,0.0,0.0,0.0,0.009943296588880282,4.286988564545415,437.44131155115144,0.0,0.0,0.0,,,,,-0.00011235551220181543,0.07243851505667998,13.98575102573841,74,11,0.14864864864864866,5,6.756756756756757,6,20,27.027027027027028,0.45454545454545453,0.5454545454545454,17.0,6.0,12.333333333333334,2.2110831935702664,17.0,11.0,11.0,13.0,11.0,11.0,6.0,74.0,63.0,0.0,60.0,81.08108108108108,,6.033182503770746,1.333333333333334,10.0,9.0,1.0,"[58.82352941176471, 90.9090909090909, 90.9090909090909, 76.92307692307693, 90.9090909090909, 90.9090909090909]"
WqoZv41KTtTCuPKBPyClregrKAi1,237.47222222217704,42.69444444439273,194.7777777777843,42.69444444439273,237.47222222217704,42.69444444439273,194.7777777777843,42.69444444439273,0.0,0.0,108,0.008280343084058511,5.147950795961486,528.1977783952811,0.0,0.0,0.0,0.005747617401182976,7.416429416759672,440.63615221296345,0.0,0.0,0.0,0.007591008312579551,5.6154330248556805,513.5114012070799,0.0,0.0,0.0,,,,,-0.002532725682875535,2.268478620798186,-87.5616261823177,89,14,0.15730337078651685,6,6.741573033707865,8,24,26.96629213483146,0.42857142857142855,0.5714285714285714,25.0,6.0,14.833333333333334,5.6984403324262525,25.0,20.0,13.0,11.0,10.0,10.0,6.0,89.0,75.0,1.0,69.0,77.52808988764045,,28.328671328671305,8.999999999999998,11.0,10.0,1.0,"[64.0, 65.0, 76.92307692307693, 90.9090909090909, 100.0, 100.0]"
XbHvBButpZS4bapbJXJLAYcHnn12,186.25833333332162,67.18888888888364,119.06944444443798,67.18888888888364,186.25833333332162,67.18888888888364,119.06944444443798,67.18888888888364,0.0,0.0,108,0.007470267483422225,5.706194438821529,413.0153684777035,0.0,0.0,0.0,0.006407241738789299,6.652909396620937,465.8419926635612,0.0,0.0,0.0,0.006596151498758997,6.462374125038369,375.2699913677432,0.0,0.0,0.0,,,,,-0.001063025744632926,0.9467149577994078,52.826624185857725,128,48,0.375,30,23.4375,18,58,45.3125,0.625,0.375,19.0,6.0,21.333333333333332,10.888321980707383,19.0,18.0,22.0,37.0,30.0,2.0,5.0,128.0,80.0,0.0,63.0,49.21875,,0.0,0.0,12.0,11.0,1.0,"[52.63157894736842, 55.55555555555556, 63.63636363636363, 35.13513513513514, 53.333333333333336]"
XehZHBpwr5MYzUXkj0FAYCsFG922,121.79444444531373,43.83888888979959,77.95555555551414,43.83888888979959,129.24949579922588,41.03936508012316,88.21013071910272,41.03936508012316,-0.02777777777777779,0.02777777777777779,108,0.008471052598875385,4.197055820384613,424.4162983046056,0.0,0.0,0.0,0.006229321767147748,4.548189112654353,463.1319564357698,0.0,0.0,0.0,0.00834555195186696,5.107726728712926,401.90772232282427,0.0,0.0,0.0,,,,,-0.0022417308317276372,0.3511332922697399,38.71565813116416,115,31,0.26956521739130435,23,20.0,8,44,38.26086956521739,0.7419354838709677,0.25806451612903225,15.0,6.0,19.166666666666668,4.6696419087073,15.0,16.0,24.0,18.0,15.0,27.0,6.0,115.0,84.0,0.0,71.0,61.73913043478261,,1.851851851851848,-1.666666666666668,8.0,7.0,1.0,"[66.66666666666666, 62.5, 54.166666666666664, 55.55555555555556, 66.66666666666666, 66.66666666666666]"
YEU5ox3jteVINfdSTg5ymqYcS9o2,22.15555555456217,15.280555559529148,6.874999995033022,15.280555559529148,18.283333333002247,17.53714286088939,0.7461904721128576,17.53714286088939,0.05555555555555558,0.02777777777777779,108,0.00817278050674134,3.4666455825153175,422.4801481899665,0.0,0.0,0.0,0.010120109428754053,4.212088720038794,426.9591250612028,0.0,0.0,0.0,0.007869125648064433,4.518097969834708,357.40838485740716,0.0,0.0,0.0,,,,,0.0019473289220127143,0.7454431375234769,4.478976871236341,68,7,0.10294117647058823,2,2.941176470588235,5,19,27.941176470588236,0.2857142857142857,0.7142857142857143,13.0,6.0,11.333333333333334,1.247219128924647,13.0,13.0,10.0,11.0,10.0,11.0,6.0,68.0,61.0,0.0,60.0,88.23529411764706,,9.32400932400931,1.333333333333334,6.0,5.0,1.0,"[76.92307692307693, 76.92307692307693, 100.0, 90.9090909090909, 100.0, 90.9090909090909]"
Yco8O7tmHlbsUBfKW2ywcZByGO32,180.24722221907655,24.361111107799843,155.8861111112767,24.361111107799843,172.53547618724997,24.361111107799843,148.17436507945013,24.361111107799843,-0.02777777777777779,0.0,108,0.008322928285764435,5.12161072483614,571.207540474054,0.0,0.0,0.0,0.005511825356625496,6.4504004235469905,490.24308332820544,0.0,0.0,0.0,0.00684439088509021,6.227990114251251,452.37047308092434,0.0,0.0,0.0,,,,,-0.0028111029291389387,1.3287896987108505,-80.96445714584854,66,3,0.045454545454545456,3,4.545454545454546,0,14,21.21212121212121,1.0,0.0,10.0,6.0,11.0,1.1547005383792515,10.0,11.0,13.0,12.0,10.0,10.0,6.0,66.0,63.0,0.0,60.0,90.9090909090909,,5.167055167055182,0.6666666666666679,3.0,2.0,1.0,"[100.0, 90.9090909090909, 76.92307692307693, 83.33333333333334, 100.0, 100.0]"
Z3GikGkUkjMOa6UK1xdIDvuGRHp2,147.10000002384186,27.90833330154419,119.19166672229767,27.90833330154419,163.75294119820876,27.90833330154419,135.84460789666457,27.90833330154419,-0.05555555555555558,0.0,108,0.008675976210330935,4.913199130220673,455.0156250435144,0.0,0.0,0.0,0.006266065715257684,4.521518721320502,573.3471000234954,0.0,0.0,0.0,0.00986432768687408,4.321308063106454,545.2555674797344,0.0,0.0,0.0,,,,,-0.002409910495073251,-0.39168040890017064,118.33147497998101,87,9,0.10344827586206896,8,9.195402298850574,1,30,34.48275862068966,0.8888888888888888,0.1111111111111111,17.0,6.0,14.5,3.253203549323856,17.0,11.0,13.0,20.0,15.0,11.0,6.0,87.0,78.0,1.0,76.0,87.35632183908046,,0.2086475615887622,-1.666666666666668,3.0,2.0,1.0,"[94.11764705882352, 90.9090909090909, 76.92307692307693, 85.0, 86.66666666666667, 90.9090909090909]"
ZEd5KGl23wS7rvzDkxzgqmCgLaC3,230.91730158546602,169.4333333439297,61.48396824153633,169.4333333439297,230.91730158546602,169.4333333439297,61.48396824153633,169.4333333439297,0.0,0.0,107,0.006591952657492044,6.466490429351911,486.4464197214844,0.0,0.0,0.0,0.005992220154168166,7.066006247537543,621.4701729648131,0.0,0.0,0.0,0.00643922889591667,6.619860772062983,632.991492521692,0.0,0.0,0.0,,,,,-0.0005997325033238786,0.5995158181856324,135.02375324332866,80,11,0.1375,8,10.0,3,22,27.500000000000004,0.7272727272727273,0.2727272727272727,11.0,6.0,13.333333333333334,3.590109871423003,11.0,11.0,21.0,12.0,11.0,14.0,6.0,80.0,69.0,0.0,65.0,81.25,,-2.525252525252526,2.0,4.0,3.0,1.0,"[90.9090909090909, 90.9090909090909, 71.42857142857143, 83.33333333333334, 90.9090909090909, 71.42857142857143]"
aM2995jJmJWvr6cneaGH58HauIg2,346.27714285680236,70.22697479088765,276.0501680659147,70.22697479088765,357.6328571424265,70.22697479088765,287.4058823515388,70.22697479088765,-0.02777777777777779,-0.02777777777777779,104,0.006293630626656218,6.727605663198618,370.1106032415246,0.0,0.0,0.0,0.004733844119086151,7.449253578922051,505.10238427976174,0.0,0.0,0.0,0.006054332875054533,6.944931351091423,402.86274552683744,0.0,0.0,0.0,,,,,-0.0015597865075700672,0.721647915723433,134.99178103823715,87,14,0.16091954022988506,9,10.344827586206897,5,29,33.33333333333333,0.6428571428571429,0.35714285714285715,13.0,6.0,14.5,2.9860788111948193,13.0,12.0,17.0,12.0,20.0,13.0,6.0,87.0,73.0,0.0,68.0,78.16091954022988,,10.392156862745097,-1.0,6.0,5.0,1.0,"[76.92307692307693, 83.33333333333334, 58.82352941176471, 83.33333333333334, 90.0, 76.92307692307693]"
afdTz6deeYWf1qKNdUpKAYKN3hz1,289.25555555688004,60.06388888839217,229.19166666848787,60.06388888839217,332.2829861118872,60.06388888839217,272.21909722349506,60.06388888839217,-0.11111111111111116,0.0,108,0.007615008220821513,5.597735095526211,480.20227833290096,0.0,0.0,0.0,0.0036921019288195032,5.6321347074637975,576.5894424512271,0.0,0.0,0.0,0.006567405833970093,6.490660063966943,417.1722919357188,0.0,0.0,0.0,,,,,-0.00392290629200201,0.03439961193758645,96.38716411832615,128,47,0.3671875,21,16.40625,26,38,29.6875,0.44680851063829785,0.5531914893617021,49.0,4.0,32.0,22.561028345356956,49.0,59.0,15.0,5.0,,,3.0,128.0,81.0,1.0,61.0,47.65625,,0.0,0.0,16.0,15.0,1.0,"[32.6530612244898, 59.32203389830508, 66.66666666666666]"
aj2Ivskb3BgyvBNTLIKlSZG0Sq22,-34.519444445768954,-120.11111110779973,85.59166666203078,-120.11111110779973,-34.519444445768954,-120.11111110779973,85.59166666203078,-120.11111110779973,0.0,0.0,108,0.007453697467046422,5.718879651189325,491.30149811171987,0.0,0.0,0.0,0.007215075632448092,5.908018285866509,431.7038203234156,0.0,0.0,0.0,0.008724249834497828,4.8860130760877984,471.9147529268114,0.0,0.0,0.0,,,,,-0.00023862183459833018,0.1891386346771844,-59.59767778830428,119,24,0.20168067226890757,13,10.92436974789916,11,36,30.252100840336134,0.5416666666666666,0.4583333333333333,39.0,6.0,19.833333333333332,9.855906294648346,39.0,26.0,15.0,16.0,11.0,12.0,6.0,119.0,95.0,1.0,87.0,73.10924369747899,,21.00815850815852,13.666666666666668,3.0,2.0,1.0,"[66.66666666666666, 65.38461538461539, 66.66666666666666, 87.5, 90.9090909090909, 83.33333333333334]"
asKxydfXDkZAk89VaD4hwVovkzJ3,225.55277777742583,117.07499999915137,108.47777777827446,117.07499999915137,231.27516339830674,117.07499999915137,114.20016339915537,117.07499999915137,-0.05555555555555558,0.0,108,0.008989948736437608,4.741606434043433,608.386152010492,0.0,0.0,0.0,0.005017977744048223,5.646125767330603,595.9731564663019,0.0,0.0,0.0,0.0061560135529363305,6.924416004588038,435.064579726729,0.0,0.0,0.0,,,,,-0.003971970992389385,0.9045193332871699,-12.41299554419004,81,11,0.13580246913580246,9,11.11111111111111,2,28,34.5679012345679,0.8181818181818182,0.18181818181818182,13.0,6.0,13.5,2.6299556396765835,13.0,14.0,11.0,19.0,12.0,12.0,6.0,81.0,70.0,0.0,66.0,81.48148148148148,,-8.533863797021695,-1.666666666666668,6.0,5.0,1.0,"[76.92307692307693, 92.85714285714286, 90.9090909090909, 68.42105263157895, 83.33333333333334, 83.33333333333334]"
azdL1gX79EVd9iepyCAVQrqIaQF3,71.41666666662786,-27.04444444443402,98.46111111106188,-27.04444444443402,67.23769841266449,-24.86230158728233,92.09999999994682,-24.86230158728233,-0.02777777777777779,-0.02777777777777779,108,0.007880237416131215,5.409329252333711,394.9321563134,0.0,0.0,0.0,0.008537329895578961,4.1644730905040275,565.5091580380312,0.0,0.0,0.0,0.0077780968762909495,4.570974260203367,426.2450911040914,0.0,0.0,0.0,,,,,0.0006570924794477469,-1.2448561618296834,170.57700172463115,81,12,0.14814814814814814,8,9.876543209876543,4,22,27.160493827160494,0.6666666666666666,0.3333333333333333,11.0,6.0,13.5,2.9860788111948193,11.0,19.0,11.0,16.0,12.0,12.0,6.0,81.0,69.0,1.0,67.0,82.71604938271605,,-14.041733120680476,0.3333333333333321,4.0,3.0,1.0,"[90.9090909090909, 89.47368421052632, 90.9090909090909, 62.5, 83.33333333333334, 83.33333333333334]"
