participant_id,stroop_rt_interference,stroop_rt_facilitation,stroop_rt_incong_minus_neutral,stroop_rt_neutral_minus_cong,stroop_rt_interference_correct,stroop_rt_facilitation_correct,stroop_rt_incong_minus_neutral_correct,stroop_rt_neutral_minus_cong_correct,stroop_acc_interference,stroop_acc_facilitation,stroop_trials,stroop_ez_congruent_v,stroop_ez_congruent_a,stroop_ez_congruent_t0,stroop_ez_congruent_sv,stroop_ez_congruent_sz,stroop_ez_congruent_st0,stroop_ez_incongruent_v,stroop_ez_incongruent_a,stroop_ez_incongruent_t0,stroop_ez_incongruent_sv,stroop_ez_incongruent_sz,stroop_ez_incongruent_st0,stroop_ez_neutral_v,stroop_ez_neutral_a,stroop_ez_neutral_t0,stroop_ez_neutral_sv,stroop_ez_neutral_sz,stroop_ez_neutral_st0,stroop_ez_congruent_v_sd,stroop_ez_incongruent_v_sd,stroop_ez_neutral_v_sd,stroop_ez_v_sd_interference,stroop_ez_v_interference,stroop_ez_a_interference,stroop_ez_t0_interference
06qcrpGKL6Vc3LVplFQC90VAcRm1,55.011111111276705,-12.533333335485736,67.54444444676244,-12.533333335485736,49.00222222242087,-12.533333335485736,61.535555557906605,-12.533333335485736,-0.02777777777777779,0.0,108,0.008806436673665275,4.840413932446045,415.48923352052583,0.0,0.0,0.0,0.008616508433983974,4.126205050141807,505.5459768001484,0.0,0.0,0.0,0.009575541908632487,4.4516330435549065,444.15323624748123,0.0,0.0,0.0,,,,,-0.00018992823968130151,-0.7142088823042378,90.0567432796226
0ZtXlQtAJkW6jS21vfMOtNL4OnL2,85.79999999998836,107.87777777778035,-22.077777777791994,107.87777777778035,93.10857142856605,105.28706349207118,-12.178492063505132,105.28706349207118,0.0,0.02777777777777779,108,0.008605030126133043,4.131709022949265,396.72800531856603,0.0,0.0,0.0,0.006548780278472143,5.429023284193757,325.0959751369895,0.0,0.0,0.0,0.006752731795031265,6.312526554331459,274.3308652264307,0.0,0.0,0.0,,,,,-0.0020562498476609002,1.2973142612444928,-71.63203018157651
0d841i8KPjdjwCYfDuUUXj0SEjH2,272.66944448153174,228.0194445451101,44.64999993642164,228.0194445451101,278.45655465887376,225.17714294403322,53.279411714840535,225.17714294403322,-0.02777777777777779,0.02777777777777779,108,0.008070180430396324,4.40553726419573,494.1352381992674,0.0,0.0,0.0,0.00572677154854109,4.947313368520846,646.4273153431442,0.0,0.0,0.0,0.006431476075794003,6.627840680438304,476.14703688579334,0.0,0.0,0.0,,,,,-0.0023434088818552346,0.5417761043251161,152.29207714387678
0oa5NYVnIBS9NmrmRAZrahXDctP2,-7.377777778026143,-34.38333333283663,27.005555554810485,-34.38333333283663,0.39899159632307146,-21.021008402910525,21.419999999233596,-21.021008402910525,0.02777777777777779,0.02777777777777779,108,0.008056442967241373,3.5167050217775504,363.23156119962493,0.0,0.0,0.0,0.008260341847846553,4.304117344025276,311.5791109589529,0.0,0.0,0.0,0.010000649795535261,3.55511705157067,368.3446663714938,0.0,0.0,0.0,,,,,0.00020389888060518002,0.7874123222477252,-51.65245024067201
146QT9LupyU2BAiTsB3PMIpVXM22,115.33333333416113,-26.799999999917304,142.13333333407843,-26.799999999917304,120.0690476199818,-26.799999999917304,146.8690476198991,-26.799999999917304,-0.02777777777777779,0.0,108,0.008196307014044488,5.200732317295042,454.26875701413144,0.0,0.0,0.0,0.006736087791700963,5.27806075489351,512.7760505511201,0.0,0.0,0.0,0.007453960731818929,5.71867766735757,362.97228783478005,0.0,0.0,0.0,,,,,-0.0014602192223435251,0.07732843759846819,58.50729353698864
1Vb7DcXYw9R86bw5qj9eBk9fPqA2,125.64722222586465,139.79166667080585,-14.1444444449412,139.79166667080585,134.45428571838215,139.79166667080585,-5.3373809524237,139.79166667080585,-0.02777777777777779,0.0,108,0.0063321978895470275,6.731754047165841,569.0157022454495,0.0,0.0,0.0,0.004936106401717923,7.2027378912497495,531.1903522697907,0.0,0.0,0.0,0.005216975670421282,8.170787341810813,464.2481672371986,0.0,0.0,0.0,,,,,-0.0013960914878291047,0.4709838440839089,-37.82534997565881
1dpmVw8fpcc2IHs0s9WqdU8Yvi53,240.625,18.6583333247238,221.9666666752762,18.6583333247238,232.23563492061612,18.6583333247238,213.57730159589232,18.6583333247238,-0.02777777777777779,0.0,108,0.00882273943928845,4.831469756501279,594.545194178671,0.0,0.0,0.0,0.005950743269637775,5.974628547041704,618.8652147576311,0.0,0.0,0.0,0.007804365270594466,5.461917438824115,539.1986760723166,0.0,0.0,0.0,,,,,-0.0028719961696506754,1.1431587905404257,24.32002057896011
1fbLQPCcysVlSKup96K4yI5NX6G3,56.30833333068426,-37.794444458352245,94.10277778903651,-37.794444458352245,42.602063491041804,-51.500714297994705,94.10277778903651,-51.500714297994705,0.02777777777777779,0.02777777777777779,108,0.005866365975002626,6.0605630072164445,442.87130095645796,0.0,0.0,0.0,0.0064045579262149745,6.655697280203254,468.15498719696916,0.0,0.0,0.0,0.007464698840446174,5.710451242781195,507.3528243231405,0.0,0.0,0.0,,,,,0.0005381919512123488,0.5951342729868099,25.2836862405112
1tT7dcLvf0bMGBdBWWYd8YkdJwr1,-89.48055555423093,-153.86388888955116,64.38333333532023,-153.86388888955116,-81.85087301267515,-148.2023015861473,66.35142857347216,-148.2023015861473,-0.02777777777777779,-0.02777777777777779,108,0.0055759760210916985,7.644724189841022,320.2557874908674,0.0,0.0,0.0,0.00578822506407474,6.142380474380784,403.7531992270239,0.0,0.0,0.0,0.005734277195176242,6.200167763916654,327.92846707331057,0.0,0.0,0.0,,,,,0.00021224904298304103,-1.5023437154602384,83.4974117361565
1upUBO9zBnhHcpJ1WoAnaBXWKRV2,131.56944444278872,52.677777775459845,78.89166666732888,52.677777775459845,143.03039682337214,52.677777775459845,90.3526190479123,52.677777775459845,-0.02777777777777779,0.0,108,0.006766481347735694,6.299699441967374,417.78687906367173,0.0,0.0,0.0,0.00579411736292187,6.136134011093823,513.2976088463598,0.0,0.0,0.0,0.006830982413896739,6.240214977525715,478.9711578424307,0.0,0.0,0.0,,,,,-0.0009723639848138238,-0.16356543087355124,95.51072978268809
23AEyocWhqY955WHbxhHRSgQ1ms2,113.0500000013659,27.52777777922654,85.52222222213936,27.52777777922654,113.0500000013659,27.712936509388783,85.33706349197712,27.712936509388783,0.0,-0.02777777777777779,108,0.0104817157344227,4.066776837920128,564.347643139002,0.0,0.0,0.0,0.007255885964948052,5.8747889611738655,472.4188373389255,0.0,0.0,0.0,0.00938542450457109,3.7881590329321946,590.0666768324822,0.0,0.0,0.0,,,,,-0.0032258297694746484,1.8080121232537376,-91.92880580007647
23hG7h2ByUZDbmOMTDtp0HT0xRb2,373.92222221692396,73.56134923337004,300.3608729835539,73.56134923337004,373.92222221692396,73.56134923337004,300.3608729835539,73.56134923337004,0.0,0.0,107,0.005668219126331486,7.520315961743982,344.19877075312,0.0,0.0,0.0,0.004588814729950476,9.289283023826338,379.0193230207542,0.0,0.0,0.0,0.005966842109285842,7.096059233757796,485.07348759866863,0.0,0.0,0.0,,,,,-0.0010794043963810096,1.7689670620823552,34.820552267634184
28nQWMwCaSNFBEXlicY3eHqpwKU2,113.27500002251713,-2.344444453716278,115.61944447623341,-2.344444453716278,113.27500002251713,-2.344444453716278,115.61944447623341,-2.344444453716278,0.0,0.0,108,0.008012338486883668,5.320144529614417,722.6918147612294,0.0,0.0,0.0,0.006082631332033586,7.007953703510405,598.6807365690757,0.0,0.0,0.0,0.007004808101089987,6.085362818687386,620.8176510414792,0.0,0.0,0.0,,,,,-0.0019297071548500817,1.687809173895988,-124.0110781921536
2FHuv7L9nWPdbIiWHRIuXtcoyw83,288.0328282828393,184.81031746031772,103.2225108225216,184.81031746031772,281.219534050191,184.81031746031772,96.40921658987327,184.81031746031772,-0.06060606060606055,0.0,104,0.006790822553649271,6.27711863086546,647.0227447910419,0.0,0.0,0.0,0.004704458446801308,5.8260478967324625,833.4308422900268,0.0,0.0,0.0,0.005475499479342953,7.732822403820859,595.2171472137103,0.0,0.0,0.0,,,,,-0.002086364106847963,-0.4510707341329976,186.40809749898494
2h5FgHUEvBS1twD5DqbTIRrMm1f2,138.85833332770403,11.552777782082558,127.30555554562147,11.552777782082558,144.23261904314393,11.552777782082558,132.67984126106137,11.552777782082558,-0.02777777777777779,0.0,108,0.007527506210686577,5.662804862239396,354.34919341529195,0.0,0.0,0.0,0.005472847040077528,6.496341000312424,303.7403330842187,0.0,0.0,0.0,0.006985874397979035,6.101855879737093,306.9976405885873,0.0,0.0,0.0,,,,,-0.002054659170609049,0.8335361380730282,-50.60886033107323
2zDXvJKvjeejeOSNbtDbtSI5cdz1,145.47500000009313,-6.530555555493493,152.00555555558662,-6.530555555493493,145.47500000009313,-6.530555555493493,152.00555555558662,-6.530555555493493,0.0,0.0,108,0.009039404108523696,4.715664689691028,459.91451515549625,0.0,0.0,0.0,0.007673565550523573,5.555018522973944,507.0796180831852,0.0,0.0,0.0,0.008981144151566747,4.746254825781525,450.08320309556444,0.0,0.0,0.0,,,,,-0.001365838558000123,0.8393538332829156,47.16510292768896
3FSnTCSiUodLp5u3bE0xaUjLk0b2,55.81666666668343,39.611111111124046,16.205555555559386,39.611111111124046,55.81666666668343,39.611111111124046,16.205555555559386,39.611111111124046,0.0,0.0,108,0.008491503933391764,5.019935114531209,535.5638543399925,0.0,0.0,0.0,0.007747648879293457,5.501901213455679,533.5494996584569,0.0,0.0,0.0,0.00754409503844391,5.65035283267132,498.4640122622037,0.0,0.0,0.0,,,,,-0.0007438550540983073,0.4819660989244703,-2.0143546815356785
3WijiOiVCoMbn80F05SPYsxl0TC2,43.75833333532012,-8.922222220235426,52.68055555555554,-8.922222220235426,43.75833333532012,-8.922222220235426,52.68055555555554,-8.922222220235426,0.0,0.0,108,0.008372611726143475,5.091218865113623,534.9388234722107,0.0,0.0,0.0,0.007559727495144843,5.638668695107042,511.7098796477146,0.0,0.0,0.0,0.00867971082290833,4.911085131765962,546.5635779763516,0.0,0.0,0.0,,,,,-0.0008128842309986324,0.5474498299934192,-23.228943824496127
3rlzYufVjVVLv3ZFLcpfZUtXEEi1,122.32777775658496,97.98888897895813,24.338888777626835,97.98888897895813,104.95040560639177,84.6411765603458,20.30922904604597,84.6411765603458,-0.13888888888888884,0.0,108,0.007778108855718881,3.6425478179995983,399.6956231651408,0.0,0.0,0.0,0.003647662186533616,3.8967031710847873,386.36566144115625,0.0,0.0,0.0,0.007068576424343069,4.008180960311999,440.4547844306146,0.0,0.0,0.0,,,,,-0.004130446669185265,0.254155353085189,-13.329961723984525
3xCaqfcHxRQxuOlEzXz3PNcHODH2,68.65555555414824,92.06944444444446,-23.41388889029622,92.06944444444446,70.2428571410477,104.70000000013147,-34.457142859083774,104.70000000013147,-0.02777777777777779,-0.05555555555555558,108,0.008701484251677782,4.8987962900920135,383.5272289171888,0.0,0.0,0.0,0.006875073652292703,5.171359961072962,372.24213984841884,0.0,0.0,0.0,0.005478128065550663,5.1718640202534605,342.3029763959042,0.0,0.0,0.0,,,,,-0.0018264105993850786,0.2725636709809489,-11.285089068769935
4ySuGdFDDmaAr6JUXbD4UIY6BQ13,178.52222222223645,-58.23611111111438,236.75833333335083,-58.23611111111438,178.52222222223645,-58.23611111111438,236.75833333335083,-58.23611111111438,0.0,0.0,108,0.008419085097335535,5.063115324003993,495.2570703672146,0.0,0.0,0.0,0.006955445247176247,6.128550690226296,537.7994045827166,0.0,0.0,0.0,0.0077733664888716865,5.483698579172552,386.4354542369337,0.0,0.0,0.0,,,,,-0.0014636398501592885,1.065435366222303,42.542334215502024
50R0P1MIMvRvK1qpqfGROchII6R2,118.84722216924024,30.59444440735706,88.25277776188318,30.59444440735706,97.42352934756309,30.59444440735706,66.82908494020603,30.59444440735706,-0.05555555555555558,0.0,108,0.008682669188883675,4.909411822920516,494.3898638177615,0.0,0.0,0.0,0.00532433599748956,5.321251974691463,422.48652115092386,0.0,0.0,0.0,0.0073884211328562295,5.769405669210203,420.25425193075876,0.0,0.0,0.0,,,,,-0.0033583331913941148,0.4118401517709467,-71.90334266683766
5OOi73igsahMZ5IVKQwwyhnj4Cn2,143.76111111117314,0.17777777778815107,143.58333333338499,0.17777777778815107,149.40865079371247,0.17777777778815107,149.23087301592432,0.17777777778815107,-0.02777777777777779,0.0,108,0.010193446651133321,4.181784653346265,585.0793586107802,0.0,0.0,0.0,0.007349032797160321,4.837844869685718,623.0490446109775,0.0,0.0,0.0,0.008570805614217135,4.973487988072493,502.5988142582068,0.0,0.0,0.0,,,,,-0.0028444138539729996,0.6560602163394531,37.96968600019727
5Z68AKm9rIeeB2lVu3nJO7U31wk1,-2.761111111069681,27.449999999875786,-30.211111110945467,27.449999999875786,-4.142857142803905,26.01714285707908,-30.159999999882984,26.01714285707908,0.0,0.0,108,0.009327021915237054,3.811879176225836,392.5351302423424,0.0,0.0,0.0,0.008174314502745151,4.349414327397648,330.1242662022604,0.0,0.0,0.0,0.006905044294691171,5.14891419917883,259.421730513688,0.0,0.0,0.0,,,,,-0.0011527074124919028,0.537535151171812,-62.410864040082004
5rXSa3anB5ejmFrnwUsTB82byup1,148.26944444450135,-95.5222222221912,243.79166666669255,-95.5222222221912,148.26944444450135,-95.5222222221912,243.79166666669255,-95.5222222221912,0.0,0.0,108,0.007222573845569053,5.901884796451633,445.6132045134693,0.0,0.0,0.0,0.006703630501971961,6.358763174353653,530.0023621340256,0.0,0.0,0.0,0.007203518142381207,5.9174972461889865,347.98662900210644,0.0,0.0,0.0,,,,,-0.0005189433435970918,0.4568783779020196,84.38915762055626
5zxa5CMLGQSSonWOXqXf0QNS3PH3,129.66666667328934,62.886111100514654,66.78055557277469,62.886111100514654,128.31587302400953,61.535317451234846,66.78055557277469,61.535317451234846,0.02777777777777779,0.02777777777777779,108,0.01034104794094231,3.4380926205873865,419.8286477417173,0.0,0.0,0.0,0.00727431080587422,5.859908918930272,313.5517682996242,0.0,0.0,0.0,0.010733473652626932,3.971388960365187,458.50260978884256,0.0,0.0,0.0,,,,,-0.0030667371350680895,2.4218162983428857,-106.2768794420931
62fAfeQc27bZelkPX7G54T3gvci2,189.75063492074946,-32.39722222206183,222.1478571428113,-32.39722222206183,189.75063492074946,-23.115079364906364,212.86571428565583,-23.115079364906364,0.0,-0.02777777777777779,107,0.007370630135398281,5.783331680922802,586.4473321254618,0.0,0.0,0.0,0.005334868133969464,7.93666572119531,435.0273168375327,0.0,0.0,0.0,0.006444413821842701,5.516945621088011,540.4962755244655,0.0,0.0,0.0,,,,,-0.0020357620014288163,2.153334040272508,-151.42001528792912
6ABZuv4jbjgE0B8TeyUk6nwVb122,114.30833327770222,17.163888825310664,97.14444445239155,17.163888825310664,114.30833327770222,17.163888825310664,97.14444445239155,17.163888825310664,0.0,0.0,108,0.008303563237347945,5.13355502354525,708.3606699623282,0.0,0.0,0.0,0.006784473217917256,6.28299315234073,673.0202020655119,0.0,0.0,0.0,0.009922702504658924,4.2958859998472185,815.6010029161002,0.0,0.0,0.0,,,,,-0.0015190900194306887,1.14943812879548,-35.340467896816335
6OwhwWQDThSPHTVAeXugohrYuje2,324.0055555469461,62.04444442854992,261.96111111839616,62.04444442854992,339.6013071819458,62.04444442854992,277.5568627533959,62.04444442854992,-0.05555555555555558,0.0,108,0.007643228846143563,5.577066921386346,561.8194843539397,0.0,0.0,0.0,0.005260979069125322,5.385334757713187,801.1735888930616,0.0,0.0,0.0,0.006699149249650109,6.36301673270521,516.8463767046774,0.0,0.0,0.0,,,,,-0.0023822497770182418,-0.19173216367315948,239.35410453912186
6WFCyGwk71XLPBmbe4Vav3eotVm1,30.483333415455263,-38.77777769830493,69.2611111137602,-38.77777769830493,30.483333415455263,-38.77777769830493,69.2611111137602,-38.77777769830493,0.0,0.0,108,0.009794640958383234,4.352053224975942,469.6756741559916,0.0,0.0,0.0,0.008791334351505972,4.848729108239541,448.0454575812695,0.0,0.0,0.0,0.013144312156766334,3.2429843617545315,526.957606054035,0.0,0.0,0.0,,,,,-0.0010033066068772627,0.4966758832635998,-21.630216574722112
7cvQFrzIDEVAkFCcGAHZPUvJ2MF3,145.64166670375403,161.83055557145008,-16.18888886769605,161.83055557145008,145.64166670375403,161.83055557145008,-16.18888886769605,161.83055557145008,0.0,0.0,108,0.00786395479413807,5.420529477380511,699.4489009029126,0.0,0.0,0.0,0.007521146181048848,5.667593441784262,813.8499028322248,0.0,0.0,0.0,0.006463133288573568,6.595376710824581,700.2924752660795,0.0,0.0,0.0,,,,,-0.0003428086130892226,0.24706396440375045,114.4010019293122
80UJMJbCOMgs6YVpsMgXfYTzw6o2,74.12777777787096,68.51111111106968,5.6166666668012795,68.51111111106968,74.12777777787096,68.51111111106968,5.6166666668012795,68.51111111106968,0.0,0.0,108,0.009721529992272682,4.384782930700807,480.08690901874013,0.0,0.0,0.0,0.009359431861234805,4.554421614731364,536.9214376393178,0.0,0.0,0.0,0.008413947896385963,5.066206648215953,475.1555358635656,0.0,0.0,0.0,,,,,-0.00036209813103787666,0.16963868403055749,56.83452862057766
87w5Le0CgZhSfYAaOH3Xd2fc98l1,90.04523809559282,-98.66285714294236,188.70809523853518,-98.66285714294236,90.04523809559282,-98.66285714294236,188.70809523853518,-98.66285714294236,0.0,0.0,106,0.005257783021854971,8.053026317361136,627.5324129602474,0.0,0.0,0.0,0.005581389901095036,7.637308900790118,796.3453058677928,0.0,0.0,0.0,0.005924285124333822,7.14703363483604,686.8448198422813,0.0,0.0,0.0,,,,,0.000323606879240065,-0.4157174165710176,168.81289290754546
8bwaafIhKVMNBoHaXFcY8HirS9u2,30.705555518468145,-4.7805555793975145,35.48611109786566,-4.7805555793975145,24.18316989708569,-4.7805555793975145,28.963725476483205,-4.7805555793975145,-0.05555555555555558,0.0,108,0.008629852033042977,4.939458823534723,384.579012119668,0.0,0.0,0.0,0.006204114835642612,4.566668121259488,359.85445587633143,0.0,0.0,0.0,0.009554360523170142,4.461502019631723,431.0389992902202,0.0,0.0,0.0,,,,,-0.002425737197400365,-0.3727907022752355,-24.724556243336565
8cOQBMgQEYSlJ4CK60pFMmBVEBV2,317.7583335505592,50.77777788374169,266.9805556668175,50.77777788374169,317.49015896660944,50.77777788374169,266.71238108286775,50.77777788374169,-0.02777777777777779,0.0,108,0.006179859115929206,6.897697499371524,465.3788829570922,0.0,0.0,0.0,0.00491260177434583,7.237199807352287,629.7722744086849,0.0,0.0,0.0,0.006406275676282463,6.6539126513439975,553.8314159487876,0.0,0.0,0.0,,,,,-0.001267257341583376,0.3395023079807631,164.39339145159272
9NTZ091xWyOO8DgzyTGY0O3i8IR2,34.01944444457888,42.18611111111625,-8.166666666537367,42.18611111111625,20.5055555556778,28.67222222221517,-8.166666666537367,28.67222222221517,0.05555555555555558,0.05555555555555558,108,0.004959002600877366,5.7132725511274245,309.50504876401806,0.0,0.0,0.0,0.008162398646294781,5.222337283142021,531.0396043245696,0.0,0.0,0.0,0.00828690518805304,5.143874317744923,548.4817771137685,0.0,0.0,0.0,,,,,0.0032033960454174153,-0.4909352679854031,221.53455556055155
9Xz1RIwnPXgyRqmucudW9VeuDnq1,228.12745098039204,71.80555555555065,156.3218954248414,71.80555555555065,225.38928571428573,105.48650793650313,119.9027777777826,105.48650793650313,-0.03104575163398693,0.02777777777777779,106,0.005653491256158133,6.288765473222778,532.2005989041578,0.0,0.0,0.0,0.004629070319284118,5.989515239570956,712.0404670009392,0.0,0.0,0.0,0.005356905280891435,7.957355326491742,440.8838826981098,0.0,0.0,0.0,,,,,-0.0010244209368740148,-0.29925023365182213,179.8398680967814
9g0uWFg7uhR46Q0VoG6MzqHOUL12,215.81388891074403,-50.71103172813139,266.5249206388754,-50.71103172813139,215.81388891074403,-50.71103172813139,266.5249206388754,-50.71103172813139,0.0,0.0,107,0.005780153328316766,7.374683048905645,431.7027686175709,0.0,0.0,0.0,0.005052126359770582,8.437397589625785,455.888875683882,0.0,0.0,0.0,0.006265964915057625,6.7573096274802955,477.4013575253946,0.0,0.0,0.0,,,,,-0.0007280269685461839,1.0627145407201404,24.186107066311138
9l7DjYLs0XdgwykPZR5E01KTZfu2,144.0083333220747,39.78611111972066,104.22222220235403,39.78611111972066,138.52196968655392,39.78611111972066,98.73585856683326,39.78611111972066,-0.08333333333333337,0.0,108,0.008967720612453475,4.7533593666173495,478.744105930176,0.0,0.0,0.0,0.004710794861306516,5.090213739711277,424.7042893708234,0.0,0.0,0.0,0.00844137972334232,5.049743071329972,485.3964593318759,0.0,0.0,0.0,,,,,-0.00425692575114696,0.33685437309392796,-54.03981655935257
A9AEg0g6c2P1Bk72HLmnK3oWJ9B2,127.23888889948535,-44.74444444974256,171.9833333492279,-44.74444444974256,127.23888889948535,-44.74444444974256,171.9833333492279,-44.74444444974256,0.0,0.0,108,0.007836085511932179,5.439807759308451,496.1501738846135,0.0,0.0,0.0,0.005516022512864163,7.727814502388512,279.8172798281827,0.0,0.0,0.0,0.006754679623217902,6.3107062285962225,334.70401930799744,0.0,0.0,0.0,,,,,-0.0023200629990680153,2.288006743080061,-216.3328940564308
ASGvwW80q7VY7xFaLGZhVuErUQu2,147.41111124886402,127.1416669421726,20.269444306691412,127.1416669421726,146.64671730272698,127.1416669421726,19.505050360554378,127.1416669421726,-0.08333333333333337,0.0,108,0.011197258831023953,3.806895903156962,612.9102489860907,0.0,0.0,0.0,0.006081730777847174,3.942784316485616,654.7023923212174,0.0,0.0,0.0,0.008047609481143258,5.2968274455034265,585.3704799788775,0.0,0.0,0.0,,,,,-0.005115528053176778,0.13588841332865398,41.79214333512675
AUKCfn4HzgVB7m6LNnh2gQb7G5s2,84.56388889418713,-24.461111108461978,109.02500000264911,-24.461111108461978,88.57119048512175,-24.461111108461978,113.03230159358372,-24.461111108461978,-0.02777777777777779,0.0,108,0.007206271325147744,5.915236444353455,534.2694774487576,0.0,0.0,0.0,0.005785707763694672,6.145052959292604,520.311330099883,0.0,0.0,0.0,0.005932847915212087,7.184879737287076,320.1335381983207,0.0,0.0,0.0,,,,,-0.001420563561453072,0.22981651493914956,-13.958147348874604
AsXBOflrszVNKoFqbN61bMJqS0k2,121.92222222023531,21.04444444179535,100.87777777843996,21.04444444179535,89.18207070682979,28.511507932345012,60.67056277448478,28.511507932345012,-0.08333333333333337,-0.02777777777777779,108,0.00773514340637994,5.510796184496677,379.1796243940252,0.0,0.0,0.0,0.005370956675391582,4.464558956107287,468.3344660815248,0.0,0.0,0.0,0.007538057387064272,4.7165309030289295,458.54682110177936,0.0,0.0,0.0,,,,,-0.0023641867309883583,-1.0462372283893897,89.15484168749958
AyAnuCaltBbpEYbudoyNzTvXlcC2,191.93611110250163,0.483333321081318,191.4527777814203,0.483333321081318,226.72796536023498,28.446904750381236,198.28106060985374,28.446904750381236,-0.05555555555555558,0.02777777777777779,108,0.006515719972878824,5.456569767099067,531.250372572499,0.0,0.0,0.0,0.003923259397313272,6.111997780316281,504.3194954347546,0.0,0.0,0.0,0.006443997088739451,6.614962450076415,456.15023288014845,0.0,0.0,0.0,,,,,-0.0025924605755655522,0.6554280132172137,-26.93087713774446
BbwUTWswjtPWhb5DvLAmh9Hdpyl2,164.60000000003492,34.9138888888798,129.68611111115513,34.9138888888798,164.60000000003492,41.09785714284749,123.50214285718744,41.09785714284749,0.0,-0.02777777777777779,108,0.008209469506313708,5.192393824915232,452.56538526912374,0.0,0.0,0.0,0.006692433858680159,6.369401576546891,461.9776368927732,0.0,0.0,0.0,0.006814010883198388,5.217702352451469,439.52745584341653,0.0,0.0,0.0,,,,,-0.0015170356476335491,1.1770077516316588,9.412251623649468
BcCTlXWx6ARh4rBtkdWRgZH3C7H2,328.4277777738042,54.525000015894534,273.9027777579097,54.525000015894534,352.5638888848374,54.525000015894534,298.0388888689429,54.525000015894534,-0.05555555555555558,0.0,108,0.008791960385621456,4.848383853062612,567.7169708149144,0.0,0.0,0.0,0.007073306523963977,4.005500587960445,936.6682048331654,0.0,0.0,0.0,0.008090392546273478,5.268817121864817,573.7343157646915,0.0,0.0,0.0,,,,,-0.0017186538616574794,-0.8428832651021665,368.95123401825106
C4HWhqUIJ3Rl6SboyJGqlrXFAJJ2,15.205555564827478,-113.3250000013245,128.53055556615197,-113.3250000013245,15.205555564827478,-116.14523809523803,131.3507936600655,-116.14523809523803,0.0,-0.02777777777777779,108,0.007507501847931639,5.6778938765305975,525.272761010928,0.0,0.0,0.0,0.007120208214822854,5.986734865656414,499.39564434668256,0.0,0.0,0.0,0.0069968613233675455,5.081347045732568,433.8283741186528,0.0,0.0,0.0,,,,,-0.0003872936331087845,0.3088409891258168,-25.87711666424542
CDEoAyvS8feXLKMKsaZah9agEhF3,194.08888888889408,81.67222222221449,112.41666666667959,81.67222222221449,194.08888888889408,81.67222222221449,112.41666666667959,81.67222222221449,0.0,0.0,108,0.01066215445848629,3.997953597125523,563.3439322263146,0.0,0.0,0.0,0.006528725230242218,6.529115143789216,453.5681903207584,0.0,0.0,0.0,0.00796786190214878,5.349841562755695,500.903300718916,0.0,0.0,0.0,,,,,-0.004133429228244073,2.531161546663693,-109.77574190555617
CGyTPhevTbSvVnZ8qSP0NtWuhgw1,386.81388890080984,69.18888889418713,317.6250000066227,69.18888889418713,398.02023810488845,69.18888889418713,328.8313492107013,69.18888889418713,-0.02777777777777779,0.0,108,0.006524285578824302,6.53355808163362,416.5063470968104,0.0,0.0,0.0,0.004662304811816079,7.62573063107927,528.955333306864,0.0,0.0,0.0,0.006296769115923104,6.769630263656908,449.8811903118873,0.0,0.0,0.0,,,,,-0.0018619807670082235,1.0921725494456496,112.44898621005359
CN1ySCsiSLN4m9yh9fS4s5p6T8k1,82.35277777778936,-56.95000000001164,139.302777777801,-56.95000000001164,82.35277777778936,-56.95000000001164,139.302777777801,-56.95000000001164,0.0,0.0,108,0.008056766342637486,5.290807373279088,600.464011125126,0.0,0.0,0.0,0.006003299610502822,7.1005616137894005,427.0808751790389,0.0,0.0,0.0,0.008119315481342532,5.250048340696431,548.4135201866022,0.0,0.0,0.0,,,,,-0.002053466732134664,1.8097542405103129,-173.38313594608712
CUNlBEszJVRGK1jWlTaOaCqpDg53,98.90277777777771,32.136111111017954,66.76666666675976,32.136111111017954,98.90277777777771,32.136111111017954,66.76666666675976,32.136111111017954,0.0,0.0,108,0.00842312804061993,5.06068512372702,453.26263858372687,0.0,0.0,0.0,0.007385874582148892,5.771394883070313,464.37300710940855,0.0,0.0,0.0,0.007534151100838323,5.657810442064286,412.41063470919784,0.0,0.0,0.0,,,,,-0.0010372534584710373,0.7107097593432927,11.110368525681679
Cbkx2NHyF3NrebzXGqNgSfiWent1,205.50555555439655,53.797222222718915,151.70833333167764,53.797222222718915,205.50555555439655,47.44261904821269,158.06293650618386,47.44261904821269,0.0,-0.02777777777777779,108,0.009447246921919946,4.512086867498773,532.4207941660983,0.0,0.0,0.0,0.007476321513639782,5.701573787676864,599.3803711662085,0.0,0.0,0.0,0.007640272439447668,4.6534309995710545,524.4197346643004,0.0,0.0,0.0,,,,,-0.001970925408280164,1.1894869201780907,66.95957700011024
Co587hoelyeANqFX7AYvuVQW0lZ2,27.166666668322364,-6.225000000662249,33.39166666898461,-6.225000000662249,26.858888890156663,-6.225000000662249,33.08388889081891,-6.225000000662249,-0.02777777777777779,0.0,108,0.007530194088847739,5.66078354255752,276.42965673034684,0.0,0.0,0.0,0.0072469112262154405,4.906018509828119,349.03470364801643,0.0,0.0,0.0,0.00849395934219865,5.018483966439532,348.42719960465496,0.0,0.0,0.0,,,,,-0.0002832828626322982,-0.7547650327294013,72.6050469176696
CtJe4bZZnYUBNrcPk00d3YQFSGp2,107.90833333330613,44.57777777775971,63.330555555546425,44.57777777775971,107.90833333330613,44.57777777775971,63.330555555546425,44.57777777775971,0.0,0.0,108,0.008731051857925748,4.8822065730508815,469.93322526609285,0.0,0.0,0.0,0.007898834556143137,5.396593442669487,517.5460282114836,0.0,0.0,0.0,0.009234282751865622,4.616146149715982,543.3301684761275,0.0,0.0,0.0,,,,,-0.0008322173017826107,0.5143868696186056,47.6128029453908
DAKDKPH698P12JfTbbjemLI6PIH2,65.56111111905841,40.28888889319376,25.272222225864653,40.28888889319376,65.56111111905841,40.28888889319376,25.272222225864653,40.28888889319376,0.0,0.0,108,0.013179693578011815,3.2342784388803327,479.8951218077141,0.0,0.0,0.0,0.008796976481001719,4.845619271856829,396.9837044581951,0.0,0.0,0.0,0.010790080883993962,3.9505541458587135,461.4959573954683,0.0,0.0,0.0,,,,,-0.004382717097010096,1.611340832976496,-82.91141734951896
DPvStUYSmohmXwFwaKRqHv89R3k1,216.9000000026491,25.219444433848025,191.68055556880108,25.219444433848025,217.89949495804433,25.219444433848025,192.6800505241963,25.219444433848025,-0.08333333333333337,0.0,108,0.006729712560676299,6.334118788296277,457.1584807190535,0.0,0.0,0.0,0.004339632523600284,5.525572176348719,602.0601378430683,0.0,0.0,0.0,0.007046204907889072,6.049611007293782,522.556862373661,0.0,0.0,0.0,,,,,-0.002390080037076015,-0.8085466119475582,144.90165712401483
DaRehVxIOhXtEtUExdgvUl0mKcx2,474.18055555721116,115.38055554529024,358.80000001192093,115.38055554529024,480.58873015959125,115.38055554529024,365.208174614301,115.38055554529024,-0.02777777777777779,0.0,108,0.006374802780472446,6.686763534236594,538.105851476553,0.0,0.0,0.0,0.0051196562373921044,6.944505444569592,888.0532725733684,0.0,0.0,0.0,0.006733317376737991,6.330727691179187,706.3399182850364,0.0,0.0,0.0,,,,,-0.0012551465430803415,0.25774191033299854,349.94742109681545
Df83JuPuJkXqTGbENhM2gw5SJM43,371.9138888888798,268.3611111111046,103.55277777777519,268.3611111111046,421.78194444442727,268.3611111111046,153.42083333332266,268.3611111111046,-0.11111111111111116,0.0,108,0.0066362158655216014,6.423359280984264,414.0114554509529,0.0,0.0,0.0,0.00399008744459978,5.211518721210409,798.3783373895608,0.0,0.0,0.0,0.0060262258185603025,7.073548196472493,582.2973217460267,0.0,0.0,0.0,,,,,-0.002646128420921821,-1.2118405597738553,384.3668819386079
DxSidjznjVSNDJuDqqGgxpMEGtw1,140.70000000794744,14.638888869020775,126.06111113892666,14.638888869020775,140.70000000794744,14.638888869020775,126.06111113892666,14.638888869020775,0.0,0.0,108,0.007403555217078455,5.757612055365249,674.6239997349036,0.0,0.0,0.0,0.007070612999144652,6.028727463314689,778.8833613724767,0.0,0.0,0.0,0.006954256906858438,6.129597934234171,638.8363431106696,0.0,0.0,0.0,,,,,-0.0003329422179338031,0.27111540794943956,104.25936163757308
DzB19GqCB7fyrlEPexogWkjFzEx2,180.58055557183957,89.49722221201523,91.08333335982434,89.49722221201523,180.58055557183957,89.49722221201523,91.08333335982434,89.49722221201523,0.0,0.0,106,0.00586403225450614,7.170309501895949,558.1013159552288,0.0,0.0,0.0,0.005594510789827561,7.619397007495464,670.0256084110907,0.0,0.0,0.0,0.0057363780519283925,7.430960509320579,611.2841110556636,0.0,0.0,0.0,,,,,-0.00026952146467857947,0.4490875055995147,111.92429245586197
EEodWwGh0wWq5f8JmzfKvq0lyeu1,183.47222222222217,21.805555555555884,161.6666666666663,21.805555555555884,153.00000000000136,20.237373737374924,132.76262626262644,20.237373737374924,0.0,0.08333333333333337,108,0.005927912690870252,4.045092088639291,377.1596357453193,0.0,0.0,0.0,0.005115142999308696,4.687836240594725,432.62551424692447,0.0,0.0,0.0,0.007675798731914943,5.553402357096296,330.02324149847243,0.0,0.0,0.0,,,,,-0.0008127696915615559,0.6427441519554344,55.465878501605175
EUhcW9kURScie1DwGPHqmNqotJB2,129.94166664944737,49.07777779632124,80.86388885312613,49.07777779632124,130.55682537650296,49.07777779632124,81.47904758018171,49.07777779632124,-0.02777777777777779,0.0,108,0.006953885364811188,6.129925435083815,649.4766676020588,0.0,0.0,0.0,0.0056333837237721035,6.311212294107243,679.5040511099579,0.0,0.0,0.0,0.006983193100610988,6.1041987750107625,702.1437401408772,0.0,0.0,0.0,,,,,-0.0013205016410390846,0.18128685902342756,30.027383507899117
EmfmKFDgWJdW47a6CNTNjnbYaPh2,198.8666666713026,68.11944444974267,130.74722222155992,68.11944444974267,198.8666666713026,68.11944444974267,130.74722222155992,68.11944444974267,0.0,0.0,108,0.008448146863921114,5.045698122561809,523.6815875960858,0.0,0.0,0.0,0.007260230850380749,5.871273193493251,619.7675548141935,0.0,0.0,0.0,0.007802594760142109,5.463156819083198,541.7720416002701,0.0,0.0,0.0,,,,,-0.0011879160135403648,0.8255750709314418,96.08596721810773
EoToosG69XMp4LTYdB6sB9WTrv22,65.21666671170135,36.847222208976746,28.369444502724605,36.847222208976746,65.21666671170135,39.38317458667461,25.833492125026737,39.38317458667461,0.0,-0.02777777777777779,108,0.008995732359860795,4.738557914485667,437.24906293360357,0.0,0.0,0.0,0.00870426398538695,4.897231844298001,485.02977532160446,0.0,0.0,0.0,0.010272371889742574,3.461078025260738,573.5880954264258,0.0,0.0,0.0,,,,,-0.0002914683744738456,0.15867392981233408,47.78071238800089
Fz7EUjZCLuUBxLDUVtN6djaBTy42,88.76666666732899,33.6194444464312,55.14722222089779,33.6194444464312,88.76666666732899,33.6194444464312,55.14722222089779,33.6194444464312,0.0,0.0,108,0.009249032035887448,4.608784855000574,700.6045770619695,0.0,0.0,0.0,0.0067995117333022066,6.269097023781639,583.4093299278939,0.0,0.0,0.0,0.007998671545154015,5.32923480227646,652.5739640906826,0.0,0.0,0.0,,,,,-0.0024495203025852418,1.660312168781065,-117.19524713407566
G1Ff3XYUZMRsPafyEQ80ussnVlf1,155.3083333273728,-103.69166666269302,258.9999999900658,-103.69166666269302,155.3083333273728,-103.69166666269302,258.9999999900658,-103.69166666269302,0.0,0.0,108,0.007393585765045139,5.765375573506039,579.2260426840071,0.0,0.0,0.0,0.006795171013414293,6.273101690342153,664.8309877433737,0.0,0.0,0.0,0.010505953848457797,4.0573944436916145,666.8585615668821,0.0,0.0,0.0,,,,,-0.0005984147516308455,0.507726116836114,85.60494505936663
G9VruXninjUdE9czK2DambZl5li2,114.4444444444315,85.63888888885651,28.805555555574983,85.63888888885651,113.14052287580398,97.36825396822769,15.77226890757629,97.36825396822769,-0.05555555555555558,-0.02777777777777779,108,0.008457028675612394,5.040398987097734,407.16609781843476,0.0,0.0,0.0,0.005358479584895541,5.287345597140027,371.4849815254538,0.0,0.0,0.0,0.006293751563013982,5.649012398873292,370.40990935124194,0.0,0.0,0.0,,,,,-0.0030985490907168532,0.24694661004229346,-35.68111629298096
GDZGRW51kbWtAdUIHCtEd8sAtqY2,-9.897222207652135,30.20000002119275,-40.097222228844885,30.20000002119275,-9.897222207652135,30.20000002119275,-40.097222228844885,30.20000002119275,0.0,0.0,108,0.007156000858596273,5.956790617095441,546.3713508036279,0.0,0.0,0.0,0.007957328961934712,5.356923029615341,613.8692183067734,0.0,0.0,0.0,0.007799850290246888,5.465079095648122,640.6185902662685,0.0,0.0,0.0,,,,,0.000801328103338439,-0.5998675874800998,67.49786750314547
GE4hogtdLdTFbNasENgtm6SO3hC3,197.4541269799072,127.98746031539304,69.46666666451415,127.98746031539304,167.11220778804818,127.98746031539304,39.124747472655145,127.98746031539304,-0.08333333333333337,0.0,107,0.005839262709396411,7.2510978103174475,496.9996320443785,0.0,0.0,0.0,0.004533382765989786,5.289417189273739,781.1092693854046,0.0,0.0,0.0,0.006074861384927607,7.016917106318661,666.6443699217297,0.0,0.0,0.0,,,,,-0.0013058799434066248,-1.9616806210437083,284.1096373410261
GEwkBw3YHaNp3TCh9YS9PKVfavz1,111.71388888193496,16.663888883259574,95.04999999867539,16.663888883259574,103.8238888814335,8.773888882758115,95.04999999867539,8.773888882758115,0.02777777777777779,0.02777777777777779,108,0.009093107488795308,3.9099373518573035,480.6895788691494,0.0,0.0,0.0,0.007130974169642886,5.977696420760969,380.0705254490387,0.0,0.0,0.0,0.00787666152665311,5.411785008937136,358.5235536577755,0.0,0.0,0.0,,,,,-0.001962133319152422,2.0677590689036656,-100.61905342011067
HSggdq91WiQp16bOj7V3dABkcgk2,79.67777778042682,38.197222222884534,41.48055555754229,38.197222222884534,79.67777778042682,38.197222222884534,41.48055555754229,38.197222222884534,0.0,0.0,108,0.009272524984497871,4.597107998272117,439.31378118062673,0.0,0.0,0.0,0.006721550353974504,6.341810523699737,301.3466031260974,0.0,0.0,0.0,0.008616774788177363,4.946955191274032,439.4338451579528,0.0,0.0,0.0,,,,,-0.002550974630523367,1.7447025254276198,-137.9671780545293
HbydnnT1hUP3WagAy2TJAc6GqVs2,66.51388887564337,-27.39722221427496,93.91111108991834,-27.39722221427496,66.51388887564337,-27.39722221427496,93.91111108991834,-27.39722221427496,0.0,0.0,108,0.008484108681933746,5.024310787199564,654.2543164731015,0.0,0.0,0.0,0.007107363927367473,5.997553974445476,598.4392465193744,0.0,0.0,0.0,0.008409553495629692,5.0688539876184455,621.730114412884,0.0,0.0,0.0,,,,,-0.0013767447545662732,0.9732431872459122,-55.815069953727175
HyQM2xKwwuVfqidmRYF6TiRk90C2,43.21388889145521,1.9861111140086223,41.22777777744659,1.9861111140086223,43.21388889145521,1.9861111140086223,41.22777777744659,1.9861111140086223,0.0,0.0,108,0.008402032280788611,5.073391454098563,342.27475093383026,0.0,0.0,0.0,0.00769410328107116,5.54019061263222,328.98910450942844,0.0,0.0,0.0,0.008381970345309795,5.085534428580434,342.85408360941017,0.0,0.0,0.0,,,,,-0.0007079289997174512,0.4667991585336564,-13.285646424401818
IaTJhUGICmO9xcL3605RW8QHneN2,120.53611110647512,101.10833333184314,19.427777774631977,101.10833333184314,151.15428570934705,123.70722222065638,27.447063488690674,123.70722222065638,0.0,0.02777777777777779,108,0.008225017084517177,4.322602646238903,394.7667735625007,0.0,0.0,0.0,0.006783328348495295,5.241303205200254,429.22033007506536,0.0,0.0,0.0,0.005882084971513475,7.2468859217185395,167.74533886693507,0.0,0.0,0.0,,,,,-0.0014416887360218823,0.9187005589613513,34.45355651256466
JOBWLirr6KYf3GXJ3jPFKmd48S93,77.19722222950725,52.07222222950725,25.125,52.07222222950725,73.8928571497637,52.07222222950725,21.820634920256452,52.07222222950725,-0.02777777777777779,0.0,108,0.006955253699572509,6.12871947043904,480.1063679472372,0.0,0.0,0.0,0.0064698851748964635,5.495225904911535,581.2588010439802,0.0,0.0,0.0,0.00667649180806751,6.384610360624616,495.6628131724981,0.0,0.0,0.0,,,,,-0.0004853685246760456,-0.6334935655275054,101.15243309674298
Jp6aXC9KLjcFZBaQdZl4i9dUscl1,92.53888888325946,12.305555540654382,80.23333334260508,12.305555540654382,92.53888888325946,12.305555540654382,80.23333334260508,12.305555540654382,0.0,0.0,108,0.008330205549664025,5.117136487962465,405.0605146253361,0.0,0.0,0.0,0.006970231863322238,6.115549612448027,369.70641579374904,0.0,0.0,0.0,0.008730378485684117,4.882583136608761,444.1135146651991,0.0,0.0,0.0,,,,,-0.0013599736863417868,0.9984131244855625,-35.354098831587066
JvrZiMHtAfP6gvQtlevYWafKy0z2,185.44166657659753,22.27777783075976,163.16388874583777,22.27777783075976,198.71404751596015,22.27777783075976,176.4362696852004,22.27777783075976,-0.02777777777777779,0.0,108,0.005866548735142936,7.266077671026901,593.1134688277091,0.0,0.0,0.0,0.005589541305839749,6.3607152482707585,856.5322652675571,0.0,0.0,0.0,0.006592298579871677,6.466151108592984,740.660352521061,0.0,0.0,0.0,,,,,-0.00027700742930318687,-0.9053624227561423,263.41879643984805
K26uNuY0VNPjJNF26wEx3bFg0kr2,83.8555555555763,64.61111111114997,19.244444444426335,64.61111111114997,88.84373015874098,69.59928571431465,19.244444444426335,69.59928571431465,0.02777777777777779,0.02777777777777779,108,0.007212331375084977,4.929540638927623,381.7675777016414,0.0,0.0,0.0,0.008228986447603106,5.180078864126614,487.3665231469778,0.0,0.0,0.0,0.0080617487000949,5.287537525191206,455.2945778383627,0.0,0.0,0.0,,,,,0.0010166550725181295,0.2505382251989907,105.59894544533637
K7ykiXe6CqQUKpEzs2nYrMTVuDA2,82.41666666667959,20.05555555556839,62.3611111111112,20.05555555556839,82.41666666667959,20.05555555556839,62.3611111111112,20.05555555556839,0.0,0.0,108,0.009673972952999238,4.406338427605128,480.0842404789164,0.0,0.0,0.0,0.007740712978232468,5.506831074900118,438.0917045412692,0.0,0.0,0.0,0.010723900163274222,3.9749343169377642,541.3729999572162,0.0,0.0,0.0,,,,,-0.0019332599747667696,1.10049264729499,-41.992535937647176
KtKj6zUKc5Oogd2itg2jdwkchnf2,125.18333333337478,14.191666666418314,110.99166666695646,14.191666666418314,125.9907936508132,14.191666666418314,111.79912698439489,14.191666666418314,-0.02777777777777779,0.0,108,0.009535924757986309,4.4701274236369555,335.0049008558895,0.0,0.0,0.0,0.006999300500051888,5.079576254031466,346.1644988418199,0.0,0.0,0.0,0.010503177154356055,4.058467085146164,389.23428607493,0.0,0.0,0.0,,,,,-0.0025366242579344207,0.6094488303945109,11.159597985930418
LSLmd8jENtONZFVkIpRDX665Bu73,230.52777778440066,102.78888888491531,127.73888889948535,102.78888888491531,230.52777778440066,102.78888888491531,127.73888889948535,102.78888888491531,0.0,0.0,108,0.008749885680608466,4.871697794278946,588.3882531000331,0.0,0.0,0.0,0.0068177792843564945,6.252299611432286,643.7773200144977,0.0,0.0,0.0,0.005996413808365688,7.10871533097731,385.5485279014931,0.0,0.0,0.0,,,,,-0.0019321063962519716,1.38060181715334,55.38906691446459
Lhv9P8ZrkDSIB7BGwooAqfu8SGF3,1.7555555535686835,-49.899999997682016,51.6555555512507,-49.899999997682016,1.7555555535686835,-49.899999997682016,51.6555555512507,-49.899999997682016,0.0,0.0,108,0.009465913024139294,4.503189355502146,486.0466511277168,0.0,0.0,0.0,0.009054710963655946,4.707692928190624,466.32118365322367,0.0,0.0,0.0,0.010527127813057303,4.0492335162437305,480.4213485898356,0.0,0.0,0.0,,,,,-0.00041120206048334863,0.20450357268847785,-19.725467474493144
LliUMEIsrCVZ88YFQfevan2Og4z1,102.88611111109549,55.413888888866836,47.47222222222865,55.413888888866836,106.88666666665051,59.583809523790705,47.30285714285981,59.583809523790705,-0.02777777777777779,-0.02777777777777779,108,0.009961152050869471,4.279304095824184,320.3003330759083,0.0,0.0,0.0,0.007791347038046319,4.563200745812136,359.4510336696282,0.0,0.0,0.0,0.006554951099612319,5.4239124098114,197.9755595291653,0.0,0.0,0.0,,,,,-0.0021698050128231517,0.28389664998795183,39.150700593719876
M4Km1Q2P2oPliChDQkwl6k20FUI3,160.44999999470178,33.349999970859926,127.10000002384186,33.349999970859926,160.44999999470178,30.59484124372875,129.85515875097303,30.59484124372875,0.0,-0.02777777777777779,108,0.010485413794505544,4.065342542108357,487.847323219199,0.0,0.0,0.0,0.008174129507641471,5.214842599516453,526.6455434627933,0.0,0.0,0.0,0.008951958093659566,3.971587025197954,497.41021620860863,0.0,0.0,0.0,,,,,-0.0023112842868640727,1.1495000574080967,38.7982202435943
O61Eik2zvrSQLMNpFbTNEgjWwMr2,-94.169444443658,-67.35833333308494,-26.81111111057305,-67.35833333308494,-94.169444443658,-61.969920634578784,-32.19952380907921,-61.969920634578784,0.0,-0.02777777777777779,108,0.006755983282474624,6.309488491629244,423.7681639962973,0.0,0.0,0.0,0.00741534839851042,5.7484552956373545,406.7449380544254,0.0,0.0,0.0,0.006889633168112161,5.1604315857409,462.0818092669795,0.0,0.0,0.0,,,,,0.0006593651160357967,-0.5610331959918895,-17.023225941871885
OExlWyngGfPrScDYjaRcv5PIAet1,194.47500001059643,52.62500000662271,141.85000000397372,52.62500000662271,194.47500001059643,52.62500000662271,141.85000000397372,52.62500000662271,0.0,0.0,108,0.008159609836668254,5.224122185212063,362.32419075871763,0.0,0.0,0.0,0.006893920975146213,6.183244473513729,432.02860515819043,0.0,0.0,0.0,0.009281921800538823,4.592453985977201,485.66261746619443,0.0,0.0,0.0,,,,,-0.0012656888615220404,0.9591222883016659,69.7044143994728
ORuVuFPU5idz3fMoXTGsbwToW2j2,-24.197222246064143,24.194444444444457,-48.3916666905086,24.194444444444457,-28.81277779624577,24.194444444444457,-53.007222240690226,24.194444444444457,-0.02777777777777779,0.0,108,0.006210441072393767,6.863731299197889,253.1065485331393,0.0,0.0,0.0,0.007379000495007612,4.818197347858758,453.19744598738816,0.0,0.0,0.0,0.007080568477136346,6.020250903307853,401.2314178380823,0.0,0.0,0.0,,,,,0.0011685594226138454,-2.045533951339131,200.09089745424887
ORvIk1xRWIQmKuLVe6GXNouvAXx2,311.75000001324554,137.47222222553353,174.277777787712,137.47222222553353,292.52020203224345,147.11396825729855,145.4062337749449,147.11396825729855,-0.08333333333333337,-0.02777777777777779,108,0.007106904318957354,5.997941840402732,412.7306327506417,0.0,0.0,0.0,0.004473033615673675,5.360780800743498,616.1480623875026,0.0,0.0,0.0,0.005735869695765079,6.198446356119993,459.79766057093815,0.0,0.0,0.0,,,,,-0.0026338707032836795,-0.637161039659234,203.4174296368609
P8mTl71XaYNvFMTCvlKpzzUdc9W2,171.71944445040492,55.100000002317984,116.61944444808694,55.100000002317984,174.84634921337874,55.100000002317984,119.74634921106076,55.100000002317984,-0.02777777777777779,0.0,108,0.00870082839741393,4.899165553372226,559.1081915659743,0.0,0.0,0.0,0.006258011269176739,5.681274623139391,578.9662230019148,0.0,0.0,0.0,0.00831504462543585,5.126466626531043,588.2205970150178,0.0,0.0,0.0,,,,,-0.0024428171282371916,0.7821090697671647,19.858031435940575
P9bS6GGJcIXivbMWo4ibJ5jgUPG2,411.40555555952926,203.12222222818264,208.28333333134663,203.12222222818264,424.57323232895203,222.57920635418282,201.99402597476922,222.57920635418282,-0.08333333333333337,-0.02777777777777779,108,0.008087088027443417,5.270970048274456,424.43665691830523,0.0,0.0,0.0,0.004005569069918298,5.986403507073417,543.1287441179747,0.0,0.0,0.0,0.005149531192046495,6.904216964411608,330.72104134847746,0.0,0.0,0.0,,,,,-0.004081518957525118,0.7154334587989615,118.69208719966952
PLreonkqaMeFc0UqxKUelH44UQu1,-17.997222223629592,-96.61666666674944,78.61944444311985,-96.61666666674944,-16.9934126996568,-86.63055555566268,69.63714285600588,-86.63055555566268,-0.02777777777777779,-0.05555555555555558,108,0.007212248730659643,5.910333983519519,284.3694996556854,0.0,0.0,0.0,0.007356966877133893,4.832627522817524,355.5448929653186,0.0,0.0,0.0,0.007989121558854164,3.5463390100958336,398.8128940855221,0.0,0.0,0.0,,,,,0.00014471814647424967,-1.0777064607019948,71.1753933096332
PXesLO51qlY7lJBrLdOAZiHmUR72,67.05455357138248,20.09385281383061,46.96070075755188,20.09385281383061,67.05455357138248,20.09385281383061,46.96070075755188,20.09385281383061,0.0,0.0,100,0.005099210322012045,8.303455314089831,483.0208371020095,0.0,0.0,0.0,0.0049522086240089535,8.366236241149203,522.7024460543869,0.0,0.0,0.0,0.004824236959316642,8.65294823844421,424.3984000657176,0.0,0.0,0.0,,,,,-0.00014700169800309186,0.06278092705937155,39.68160895237736
PkpTH7pWpEOG9A86xSloOSozwTk2,-8.293650806896267,54.11428571428564,-62.40793652118191,54.11428571428564,-8.293650806896267,54.11428571428564,-62.40793652118191,54.11428571428564,0.0,0.0,106,0.00679510896910467,6.231109057777411,917.6718479367488,0.0,0.0,0.0,0.006133362222229415,6.949988803191667,803.9433973842971,0.0,0.0,0.0,0.0059217614157451495,7.150079524209397,830.722409690606,0.0,0.0,0.0,,,,,-0.0006617467468752547,0.7188797454142559,-113.7284505524517
QG6VXg7od2fHJ1SF9ZzYBqUa1FY2,166.37499999968952,107.22222222201526,59.15277777767426,107.22222222201526,164.8961904758736,105.74341269819934,59.15277777767426,105.74341269819934,0.02777777777777779,0.02777777777777779,108,0.007655271740989645,4.644313333062416,352.74855864527575,0.0,0.0,0.0,0.006995053033539399,6.093849262618762,380.6500771246332,0.0,0.0,0.0,0.006790124285476904,6.277764143667557,295.549768301968,0.0,0.0,0.0,,,,,-0.0006602187074502457,1.4495359295563457,27.901518479357435
QbOEVCaZLUMOgltUdXm58oZOALv2,95.59444443881512,17.92777777380411,77.66666666501101,17.92777777380411,96.93293650330043,17.92777777380411,79.00515872949632,17.92777777380411,-0.02777777777777779,0.0,108,0.007356559564683299,5.794393207261184,653.4674228240095,0.0,0.0,0.0,0.006173123584983935,5.759398807659974,692.7119810410254,0.0,0.0,0.0,0.0062713432078921666,6.797076376998398,527.4182486469592,0.0,0.0,0.0,,,,,-0.0011834359796993633,-0.03499439960121009,39.24455821701588
Qg9GDwQ9hBNkDLt50CNLd4NqRlX2,95.19166669580659,11.119444443119846,84.07222225268674,11.119444443119846,95.19166669580659,11.119444443119846,84.07222225268674,11.119444443119846,0.0,0.0,108,0.00835141439232558,5.104141258944655,849.8502680810014,0.0,0.0,0.0,0.007584779712536483,5.620044402866125,881.9483319364153,0.0,0.0,0.0,0.007472080575970142,5.704809836700499,786.9288797705187,0.0,0.0,0.0,,,,,-0.000766634679789097,0.5159031439214701,32.0980638554139
QreA2rLiUhV3YHeMfuHMPdGbpJ53,321.86944444974256,258.86666667461395,63.00277777512861,258.86666667461395,334.1583333485055,258.86666667461395,75.29166667389154,258.86666667461395,-0.08333333333333337,0.0,108,0.007867440174731273,5.418128110757347,557.9679388079687,0.0,0.0,0.0,0.004674146308312386,5.130124550303471,769.5861388462858,0.0,0.0,0.0,0.006039341032980333,7.058187066706755,583.48953716101,0.0,0.0,0.0,,,,,-0.003193293866418887,-0.288003560453876,211.61820003831713
Rc706mP0TSeIoIpMYH1SpRXjOxA2,90.38333333863147,-34.25277802679284,124.63611136542431,-34.25277802679284,67.33714286259249,-48.82301612959975,116.16015899219224,-48.82301612959975,0.0,0.02777777777777779,108,0.006581221263230886,5.402261858833181,584.6001970842324,0.0,0.0,0.0,0.006650379926401046,5.346082631121866,659.957474213584,0.0,0.0,0.0,0.006792694814123437,6.275388477895863,474.31485586906956,0.0,0.0,0.0,,,,,6.915866317016e-05,-0.056179227711314894,75.35727712935159
Rmd4rr2vGjOoLvdfYd4EdYyxK3m1,182.7166666918331,46.99166667461395,135.72500001721914,46.99166667461395,182.7166666918331,46.99166667461395,135.72500001721914,46.99166667461395,0.0,0.0,108,0.008176287720549734,5.213466089662899,548.07035353229,0.0,0.0,0.0,0.00766753773905438,5.559385583887621,688.2899934313115,0.0,0.0,0.0,0.007612529158137506,5.599558029258484,547.4528364374275,0.0,0.0,0.0,,,,,-0.0005087499814953539,0.3459194942247219,140.21963989902144
Ru3Qf6pXZua1DfNkQdhbor6iJ403,99.04166666665708,156.21944444443227,-57.17777777777519,156.21944444443227,106.68536796536364,142.95428571427306,-36.268917748909416,142.95428571427306,-0.05555555555555558,0.0,108,0.00674552770269138,5.270674464906393,564.0337901916666,0.0,0.0,0.0,0.00500036627662767,4.795439254133101,640.1032736938041,0.0,0.0,0.0,0.004795891277414831,7.413320811154591,346.0182806309456,0.0,0.0,0.0,,,,,-0.0017451614260637106,-0.4752352107732918,76.06948350213747
SOhR7IO689NQCPQu56SjATO8FR92,316.35833333342134,183.29722222227917,133.06111111114217,183.29722222227917,354.80779569901165,190.7830952381479,164.02470046086376,190.7830952381479,-0.13888888888888884,-0.02777777777777779,108,0.00815973700544889,5.224040767729153,492.6894471860308,0.0,0.0,0.0,0.003734422058994123,4.885760803754716,686.2728742004906,0.0,0.0,0.0,0.006175210576165265,5.757452345369645,554.4154400306227,0.0,0.0,0.0,,,,,-0.004425314946454767,-0.33827996397443627,193.5834270144598
SPCT9D90pRa1ihXS5jEw6vCmquI3,95.06666667097147,143.71944444709357,-48.65277777612209,143.71944444709357,98.05816993852659,146.9553968277952,-48.89722688926861,146.9553968277952,-0.05555555555555558,-0.02777777777777779,108,0.009649867060786934,4.417345700401498,382.3155304785858,0.0,0.0,0.0,0.006003033439289642,4.719636118487921,353.47104381815467,0.0,0.0,0.0,0.007070348318286887,5.028533109597716,415.94306981731035,0.0,0.0,0.0,,,,,-0.0036468336214972924,0.30229041808642343,-28.84448666043113
SpSfX0ZcfcPLdlOENlfdfvEPwru2,10.722222222228652,-6.416666666660262,17.138888888888914,-6.416666666660262,1.8055555555619094,-6.416666666660262,8.222222222222172,-6.416666666660262,-0.02777777777777779,0.0,108,0.007377768731337774,5.777735833511807,471.5073169386594,0.0,0.0,0.0,0.007045291464408774,5.04641728372805,515.7556000314187,0.0,0.0,0.0,0.008268476499525628,5.15533892765599,542.6908022725538,0.0,0.0,0.0,,,,,-0.00033247726692900003,-0.7313185497837571,44.248283092759266
SvtOrPatsnWjicxtyndEzSdO5Wp1,38.56944443451039,30.64999998278097,7.919444451729419,30.64999998278097,38.56944443451039,28.72142855212803,9.848015882382356,28.72142855212803,0.0,-0.02777777777777779,108,0.011023183453251168,3.867013458606723,586.6186633093001,0.0,0.0,0.0,0.007140896370122033,5.969390474390085,389.3577097663519,0.0,0.0,0.0,0.006695729854000617,5.309873813629349,411.3879194262264,0.0,0.0,0.0,,,,,-0.0038822870831291354,2.1023770157833623,-197.26095354294824
ToTCRJ4EX9OL6UlJqmDkaEbggWF2,15.444444444444457,60.45277777810895,-45.008333333664496,60.45277777810895,15.444444444444457,60.45277777810895,-45.008333333664496,60.45277777810895,0.0,0.0,108,0.007556725671005415,5.640908592721448,515.0717593719895,0.0,0.0,0.0,0.0065453114686157,6.512569947939934,409.7066668606445,0.0,0.0,0.0,0.007672863336941305,5.555526913295169,586.426314420549,0.0,0.0,0.0,,,,,-0.0010114142023897148,0.8716613552184853,-105.36509251134504
UK6MLdHbCaS4xIz2f3vGdpkbBzG3,108.27777778191694,0.6527777810890711,107.62500000082787,0.6527777810890711,105.31993464473021,0.6339682568633407,104.68596638786687,0.6339682568633407,-0.05555555555555558,-0.02777777777777779,108,0.01074632846736017,3.966638363966223,390.4576544593639,0.0,0.0,0.0,0.006886844901912758,4.113949688730927,409.713940183976,0.0,0.0,0.0,0.009402331866633869,3.7813471295416687,380.60867736206586,0.0,0.0,0.0,,,,,-0.003859483565447413,0.1473113247647042,19.2562857246121
Ub7nV8F55kPruh35ZpUcKoBUyn63,151.38333333614798,53.836111113428956,97.54722222271903,53.836111113428956,138.06388889137236,53.836111113428956,84.2277777779434,53.836111113428956,-0.02777777777777779,0.0,108,0.006329115312648907,6.735032728069023,452.9482942366226,0.0,0.0,0.0,0.006028832246121124,5.897241648707146,646.3849155115167,0.0,0.0,0.0,0.0060424348357811285,7.054573185960171,456.53504506714046,0.0,0.0,0.0,,,,,-0.00030028306652778343,-0.8377910793618772,193.43662127489415
UbqFccqQZZgcqJIqCn3ErH9zQdM2,44.66388890478345,-7.794444438483993,52.45833334326744,-7.794444438483993,30.656209166922622,-7.57394957402164,38.23015874094426,-7.57394957402164,0.05555555555555558,0.02777777777777779,108,0.0061509221737620036,4.606160286244326,491.5629626460212,0.0,0.0,0.0,0.006188606362265888,6.887947992673085,314.000491094126,0.0,0.0,0.0,0.006748511652929195,5.268343961362523,448.1657272085353,0.0,0.0,0.0,,,,,3.768418850388401e-05,2.2817877064287586,-177.56247155189521
UbwuSMtBsHdW3Ji41opk3GInMqi2,52.158333333260885,48.83055555561759,3.3277777776432913,48.83055555561759,61.948253968179074,48.83055555561759,13.11769841256148,48.83055555561759,-0.02777777777777779,0.0,108,0.009904680003392471,4.303702770388646,505.7677555570566,0.0,0.0,0.0,0.007250230972697562,4.90377213481599,459.5445354360783,0.0,0.0,0.0,0.00889648545874906,4.791420046496313,504.01240464185037,0.0,0.0,0.0,,,,,-0.002654449030694909,0.6000693644273447,-46.22322012097828
VwTymW8T68MfpnJvZ2X97ILqDWS2,263.4111111213764,223.07500001125857,40.33611111011783,223.07500001125857,305.0194444540474,223.07500001125857,81.94444444278884,223.07500001125857,-0.11111111111111116,0.0,108,0.008851400236890669,4.815825477279197,544.8246586259229,0.0,0.0,0.0,0.0036881222390024943,5.638212095275482,519.8116148813942,0.0,0.0,0.0,0.006818066814917015,6.252035940327174,586.6260300970916,0.0,0.0,0.0,,,,,-0.005163277997888175,0.8223866179962851,-25.01304374452866
WKzqsLX1lNVSdbGgYTTVGtFwsrF3,91.02777777774554,44.49999999998704,46.5277777777585,44.49999999998704,91.02777777774554,44.49999999998704,46.5277777777585,44.49999999998704,0.0,0.0,108,0.0069391239225574846,6.142965487594673,530.3571551816801,0.0,0.0,0.0,0.00581003377850452,7.336755756587903,437.87407111837183,0.0,0.0,0.0,0.00682309460332104,6.247428952496898,560.0966103607976,0.0,0.0,0.0,,,,,-0.001129090144052965,1.1937902689932294,-92.4830840633083
WbOfW9KmUkPQK8o5hlHJnJFdpp92,21.58774510043031,91.9238562088924,-70.33611110846209,91.9238562088924,-0.6522727249321179,85.31082251080966,-85.96309523574178,85.31082251080966,0.02941176470588236,0.0016339869281045694,106,0.005928244807654737,5.8980485369829525,691.2693719331836,0.0,0.0,0.0,0.005581199194256065,7.63756986388927,493.59151460037947,0.0,0.0,0.0,0.004632453892830302,7.674869828692875,462.41197726920757,0.0,0.0,0.0,,,,,-0.0003470456133986728,1.7395213269063179,-197.67785733280414
WcTsIpSoEhYeIBSNjAbbdaNSBya2,5.938888889633745,32.51944444204355,-26.580555552409805,32.51944444204355,5.938888889633745,32.51944444204355,-26.580555552409805,32.51944444204355,0.0,0.0,108,0.008088014166912587,5.270366481898114,724.648101848622,0.0,0.0,0.0,0.006458301499255987,6.60031105319625,550.5499450466184,0.0,0.0,0.0,0.007255067812163472,5.8754514601431165,680.2578413198385,0.0,0.0,0.0,,,,,-0.0016297126676566003,1.3299445712981353,-174.0981568020036
WeHQDy9BWldTlaQDVVlsJNCqwxA2,162.5000000000291,54.86111111114337,107.63888888888573,54.86111111114337,162.5000000000291,54.86111111114337,107.63888888888573,54.86111111114337,0.0,0.0,108,0.008312215020942653,5.12821175378823,533.7331829649657,0.0,0.0,0.0,0.005896777449224327,7.2288294983932975,400.21774895186377,0.0,0.0,0.0,0.006683840802372664,6.377590375174902,424.66227029416916,0.0,0.0,0.0,,,,,-0.0024154375717183266,2.100617744605067,-133.51543401310198
Wfo71fsX1VVfPZnzhT7HEYBTwnq1,175.96388889683612,30.736111124356626,145.2277777724795,30.736111124356626,175.96388889683612,30.736111124356626,145.2277777724795,30.736111124356626,0.0,0.0,108,0.00982853550969644,4.337044794553502,490.2239627729984,0.0,0.0,0.0,0.007642456005404485,5.577630900363571,525.91996454855,0.0,0.0,0.0,0.009798344286400017,4.350408347008043,519.6361371797315,0.0,0.0,0.0,,,,,-0.002186079504291956,1.2405861058100696,35.696001775551565
WnC6Uscb5VMIr43GASKiUCO3AYH2,22.64722222420903,2.4972222223877907,20.15000000182124,2.4972222223877907,22.64722222420903,2.4972222223877907,20.15000000182124,2.4972222223877907,0.0,0.0,108,0.008187555688147658,5.206291156238478,335.42014234545144,0.0,0.0,0.0,0.008075200175945842,5.278729671295158,349.40589337118985,0.0,0.0,0.0,0.009943296588880282,4.286988564545415,437.44131155115144,0.0,0.0,0.0,,,,,-0.00011235551220181543,0.07243851505667998,13.98575102573841
WqoZv41KTtTCuPKBPyClregrKAi1,237.47222222217704,42.69444444439273,194.7777777777843,42.69444444439273,237.47222222217704,42.69444444439273,194.7777777777843,42.69444444439273,0.0,0.0,108,0.008280343084058511,5.147950795961486,528.1977783952811,0.0,0.0,0.0,0.005747617401182976,7.416429416759672,440.63615221296345,0.0,0.0,0.0,0.007591008312579551,5.6154330248556805,513.5114012070799,0.0,0.0,0.0,,,,,-0.002532725682875535,2.268478620798186,-87.5616261823177
XbHvBButpZS4bapbJXJLAYcHnn12,186.25833333332162,67.18888888888364,119.06944444443798,67.18888888888364,186.25833333332162,67.18888888888364,119.06944444443798,67.18888888888364,0.0,0.0,108,0.007470267483422225,5.706194438821529,413.0153684777035,0.0,0.0,0.0,0.006407241738789299,6.652909396620937,465.8419926635612,0.0,0.0,0.0,0.006596151498758997,6.462374125038369,375.2699913677432,0.0,0.0,0.0,,,,,-0.001063025744632926,0.9467149577994078,52.826624185857725
XehZHBpwr5MYzUXkj0FAYCsFG922,121.79444444531373,43.83888888979959,77.95555555551414,43.83888888979959,129.24949579922588,41.03936508012316,88.21013071910272,41.03936508012316,-0.02777777777777779,0.02777777777777779,108,0.008471052598875385,4.197055820384613,424.4162983046056,0.0,0.0,0.0,0.006229321767147748,4.548189112654353,463.1319564357698,0.0,0.0,0.0,0.00834555195186696,5.107726728712926,401.90772232282427,0.0,0.0,0.0,,,,,-0.0022417308317276372,0.3511332922697399,38.71565813116416
XjVUeGHFypbhi8kDuvI2f4aW4573,87.13888888888084,-4.000000000021032,91.13888888890187,-4.000000000021032,80.99761904760783,-4.000000000021032,84.99761904762886,-4.000000000021032,-0.02777777777777779,0.0,108,0.006634890333938104,6.424642552473402,388.2095452995557,0.0,0.0,0.0,0.005534768250818473,6.423662022278268,391.852322231687,0.0,0.0,0.0,0.0062173003879471556,6.856158800538159,318.85523091153834,0.0,0.0,0.0,,,,,-0.0011001220831196312,-0.0009805301951333334,3.642776932131312
YEU5ox3jteVINfdSTg5ymqYcS9o2,22.15555555456217,15.280555559529148,6.874999995033022,15.280555559529148,18.283333333002247,17.53714286088939,0.7461904721128576,17.53714286088939,0.05555555555555558,0.02777777777777779,108,0.00817278050674134,3.4666455825153175,422.4801481899665,0.0,0.0,0.0,0.010120109428754053,4.212088720038794,426.9591250612028,0.0,0.0,0.0,0.007869125648064433,4.518097969834708,357.40838485740716,0.0,0.0,0.0,,,,,0.0019473289220127143,0.7454431375234769,4.478976871236341
Yco8O7tmHlbsUBfKW2ywcZByGO32,180.24722221907655,24.361111107799843,155.8861111112767,24.361111107799843,172.53547618724997,24.361111107799843,148.17436507945013,24.361111107799843,-0.02777777777777779,0.0,108,0.008322928285764435,5.12161072483614,571.207540474054,0.0,0.0,0.0,0.005511825356625496,6.4504004235469905,490.24308332820544,0.0,0.0,0.0,0.00684439088509021,6.227990114251251,452.37047308092434,0.0,0.0,0.0,,,,,-0.0028111029291389387,1.3287896987108505,-80.96445714584854
YzmMCD3ZmzbWlV4pTQ6hvDdnuMk2,250.0792063590079,63.816666664348645,186.26253969465927,63.816666664348645,263.2483660220321,68.32483660045011,194.92352942158197,68.32483660045011,-0.02857142857142858,-0.05555555555555558,107,0.006322729263035608,6.74183521025027,366.23894102996974,0.0,0.0,0.0,0.0048916485531513435,7.208940884243159,453.0648907207029,0.0,0.0,0.0,0.005238203612003639,5.408749933973066,493.98231674414484,0.0,0.0,0.0,,,,,-0.0014310807098842646,0.46710567399288916,86.82594969073318
Z3GikGkUkjMOa6UK1xdIDvuGRHp2,147.10000002384186,27.90833330154419,119.19166672229767,27.90833330154419,163.75294119820876,27.90833330154419,135.84460789666457,27.90833330154419,-0.05555555555555558,0.0,108,0.008675976210330935,4.913199130220673,455.0156250435144,0.0,0.0,0.0,0.006266065715257684,4.521518721320502,573.3471000234954,0.0,0.0,0.0,0.00986432768687408,4.321308063106454,545.2555674797344,0.0,0.0,0.0,,,,,-0.002409910495073251,-0.39168040890017064,118.33147497998101
ZEd5KGl23wS7rvzDkxzgqmCgLaC3,281.3944444424576,169.4333333439297,111.96111109852791,169.4333333439297,281.3944444424576,169.4333333439297,111.96111109852791,169.4333333439297,0.0,0.0,108,0.006591952657492044,6.466490429351911,486.4464197214844,0.0,0.0,0.0,0.005319758702155044,8.012919599745192,512.4921183912265,0.0,0.0,0.0,0.00643922889591667,6.619860772062983,632.991492521692,0.0,0.0,0.0,,,,,-0.001272193955337,1.5464291703932815,26.045698669742137
aM2995jJmJWvr6cneaGH58HauIg2,346.27714285680236,70.22697479088765,276.0501680659147,70.22697479088765,357.6328571424265,70.22697479088765,287.4058823515388,70.22697479088765,-0.02857142857142858,0.0,104,0.006293630626656218,6.727605663198618,370.1106032415246,0.0,0.0,0.0,0.004733844119086151,7.449253578922051,505.10238427976174,0.0,0.0,0.0,0.006054332875054533,6.944931351091423,402.86274552683744,0.0,0.0,0.0,,,,,-0.0015597865075700672,0.721647915723433,134.99178103823715
afdTz6deeYWf1qKNdUpKAYKN3hz1,289.25555555688004,60.06388888839217,229.19166666848787,60.06388888839217,332.2829861118872,60.06388888839217,272.21909722349506,60.06388888839217,-0.11111111111111116,0.0,108,0.007615008220821513,5.597735095526211,480.20227833290096,0.0,0.0,0.0,0.0036921019288195032,5.6321347074637975,576.5894424512271,0.0,0.0,0.0,0.006567405833970093,6.490660063966943,417.1722919357188,0.0,0.0,0.0,,,,,-0.00392290629200201,0.03439961193758645,96.38716411832615
aj2Ivskb3BgyvBNTLIKlSZG0Sq22,-34.519444445768954,-120.11111110779973,85.59166666203078,-120.11111110779973,-34.519444445768954,-120.11111110779973,85.59166666203078,-120.11111110779973,0.0,0.0,108,0.007453697467046422,5.718879651189325,491.30149811171987,0.0,0.0,0.0,0.007215075632448092,5.908018285866509,431.7038203234156,0.0,0.0,0.0,0.008724249834497828,4.8860130760877984,471.9147529268114,0.0,0.0,0.0,,,,,-0.00023862183459833018,0.1891386346771844,-59.59767778830428
asKxydfXDkZAk89VaD4hwVovkzJ3,225.55277777742583,117.07499999915137,108.47777777827446,117.07499999915137,231.27516339830674,117.07499999915137,114.20016339915537,117.07499999915137,-0.05555555555555558,0.0,108,0.008989948736437608,4.741606434043433,608.386152010492,0.0,0.0,0.0,0.005017977744048223,5.646125767330603,595.9731564663019,0.0,0.0,0.0,0.0061560135529363305,6.924416004588038,435.064579726729,0.0,0.0,0.0,,,,,-0.003971970992389385,0.9045193332871699,-12.41299554419004
azdL1gX79EVd9iepyCAVQrqIaQF3,71.41666666662786,-27.04444444443402,98.46111111106188,-27.04444444443402,67.23769841266449,-24.86230158728233,92.09999999994682,-24.86230158728233,-0.02777777777777779,-0.02777777777777779,108,0.007880237416131215,5.409329252333711,394.9321563134,0.0,0.0,0.0,0.008537329895578961,4.1644730905040275,565.5091580380312,0.0,0.0,0.0,0.0077780968762909495,4.570974260203367,426.2450911040914,0.0,0.0,0.0,,,,,0.0006570924794477469,-1.2448561618296834,170.57700172463115
bXpFswkI7TfIfL6G4FqWrbaxTGx2,183.69722222225062,24.74722222224227,158.95000000000834,24.74722222224227,189.57109243700245,28.771428571451906,160.79966386555054,28.771428571451906,-0.02777777777777779,0.0,108,0.008392169750765162,4.236506370912306,376.13153909257113,0.0,0.0,0.0,0.0050917603675526245,5.564310060840533,318.3963497399071,0.0,0.0,0.0,0.006700920702165495,5.3057605357730235,269.3850226263961,0.0,0.0,0.0,,,,,-0.003300409383212537,1.3278036899282277,-57.73518935266401
biQ16yPcCKSkJQhSxUKcDc8gm8I2,108.68888885445062,-62.9333333505524,171.62222220500303,-62.9333333505524,108.68888885445062,-62.9333333505524,171.62222220500303,-62.9333333505524,0.0,0.0,108,0.007123223873184587,5.984200346542806,696.8110891016271,0.0,0.0,0.0,0.007862504465634104,5.421529355783378,878.686385463009,0.0,0.0,0.0,0.008269918489903548,5.15444001321836,739.2770445756342,0.0,0.0,0.0,,,,,0.0007392805924495167,-0.5626709907594281,181.87529636138186
btpcu1rB1JeSTo2upeHGPdv8kYG3,298.66666666666674,127.5222222109636,171.14444445570314,127.5222222109636,298.66666666666674,127.5222222109636,171.14444445570314,127.5222222109636,0.0,0.0,108,0.008122820106615407,5.2477831850168615,532.8208068188466,0.0,0.0,0.0,0.0053455988574788674,7.974185850248625,420.3955329556444,0.0,0.0,0.0,0.0066348786679507185,6.42465384880642,503.688445570715,0.0,0.0,0.0,,,,,-0.0027772212491365394,2.7264026652317632,-112.42527386320216
c0hRe9PCPPZs3HWFqhIQargNlp52,115.08611108197101,29.449999981456358,85.63611110051465,29.449999981456358,110.53063489936642,24.894523798851765,85.63611110051465,24.894523798851765,0.02777777777777779,0.02777777777777779,108,0.006057560351622559,5.869273857976652,448.6529529283323,0.0,0.0,0.0,0.006740262497101249,6.324204552678103,560.6229742269629,0.0,0.0,0.0,0.006577971334446499,6.480234802360995,452.2032708488189,0.0,0.0,0.0,,,,,0.0006827021454786902,0.4549306947014511,111.97002129863063
c8BtRUVPPPZHjyhX2rn702NoUld2,263.54722222189116,155.52777778108918,108.01944444080198,155.52777778108918,263.54722222189116,155.52777778108918,108.01944444080198,155.52777778108918,0.0,0.0,108,0.010827895338460944,3.936757554259117,544.0313500060951,0.0,0.0,0.0,0.0067162241831931375,6.34683977302063,524.9410934326045,0.0,0.0,0.0,0.007023797362711318,6.068910671699454,456.27301629812376,0.0,0.0,0.0,,,,,-0.004111671155267806,2.410082218761513,-19.090256573490592
cC0BEsQjfrcuCyoaOas9zJT0MNs2,25.6611111164093,-133.802777773804,159.4638888902133,-133.802777773804,25.6611111164093,-133.802777773804,159.4638888902133,-133.802777773804,0.0,0.0,108,0.007524401390117532,5.665141525596811,659.4001149398825,0.0,0.0,0.0,0.006697768594225509,6.364328383510287,589.1448910551688,0.0,0.0,0.0,0.007488179935037441,5.692544669093888,522.0480341406226,0.0,0.0,0.0,,,,,-0.0008266327958920232,0.6991868579134763,-70.2552238847137
cEIs6U87xfbSL5eFTXDK77MmvNf1,45.30833329094787,-37.09166671170124,82.40000000264911,-37.09166671170124,45.30833329094787,-37.09166671170124,82.40000000264911,-37.09166671170124,0.0,0.0,108,0.006461807910624735,6.596729484998261,382.78896224004666,0.0,0.0,0.0,0.005845093091584203,7.2927493373523,317.8519136701908,0.0,0.0,0.0,0.007227022303404447,5.898252002118896,445.22428240835654,0.0,0.0,0.0,,,,,-0.0006167148190405324,0.6960198523540386,-64.93704856985585
cUugYJoOmOSFc0Mh5JD0ZXJrYN52,214.76388888909582,78.50555555543133,136.2583333336645,78.50555555543133,217.75353535370095,78.92634920617411,138.82718614752685,78.92634920617411,-0.08333333333333337,-0.02777777777777779,108,0.008709058212523567,4.894535979690221,326.12525127528727,0.0,0.0,0.0,0.0049610973719983065,4.833396914022894,411.1342430612628,0.0,0.0,0.0,0.006961139572148312,5.107422462429065,331.7767962197906,0.0,0.0,0.0,,,,,-0.0037479608405252603,-0.06113906566732652,85.00899178597552
cec6NLR2ZLVVw6h0TEKSNIH11v02,68.28611111114469,73.43055555562023,-5.144444444475539,73.43055555562023,68.28611111114469,73.43055555562023,-5.144444444475539,73.43055555562023,0.0,0.0,108,0.010016329766038857,4.255730368916434,601.505935175532,0.0,0.0,0.0,0.008195535923467973,5.201221636812191,567.8246015073483,0.0,0.0,0.0,0.006669143858627164,6.391644815889139,415.59067824258193,0.0,0.0,0.0,,,,,-0.001820793842570884,0.9454912678957568,-33.6813336681837
cfoKz0AGhvYmW0DJmVKAZ01jh752,72.70833333333326,70.68611109256744,2.0222222407658137,70.68611109256744,72.70833333333326,72.26039680725046,0.447936526082799,72.26039680725046,0.0,-0.02777777777777779,108,0.011337844148337599,3.7596917202873454,440.11676044234144,0.0,0.0,0.0,0.009341653287300406,4.563089365387023,436.5729856462232,0.0,0.0,0.0,0.008968786166710178,3.964135163224149,464.8556607792083,0.0,0.0,0.0,,,,,-0.001996190861037193,0.8033976450996771,-3.543774796118271
d9rwc0NXArcNlJvFsgKhQqkGxJq2,240.9500000062916,64.94444444444446,176.00555556184713,64.94444444444446,240.9500000062916,64.94444444444446,176.00555556184713,64.94444444444446,0.0,0.0,108,0.00898458422741383,4.744437548968599,488.76877724166354,0.0,0.0,0.0,0.006917421697070065,6.162237989404081,553.374922631495,0.0,0.0,0.0,0.008193762259120312,5.202347520269601,501.77158100266143,0.0,0.0,0.0,,,,,-0.0020671625303437646,1.4178004404354816,64.60614538983145
dGL2zPQyEvdibcvxeTencpgoWbg2,49.6388888888921,-63.92460317458972,113.56349206348182,-63.92460317458972,40.57142857143185,-74.83445378150225,115.4058823529341,-74.83445378150225,0.0,-0.0007936507936507908,107,0.006025093724836758,5.900900838825941,369.1400800484911,0.0,0.0,0.0,0.0059373475890834365,5.988108339869424,395.94056180243876,0.0,0.0,0.0,0.007231183595841412,4.876602118972804,438.8697364026232,0.0,0.0,0.0,,,,,-8.774613575332144e-05,0.08720750104348252,26.80048175394768
dnkEqKuvjoQzAQm5yXlrAOp9ZlD3,139.92222222354678,35.38888888557756,104.53333333796922,35.38888888557756,139.92222222354678,35.38888888557756,104.53333333796922,35.38888888557756,0.0,0.0,108,0.008294737053191868,5.139017487481431,452.00686845965475,0.0,0.0,0.0,0.006369344881461868,6.692493429658602,382.3260542116771,0.0,0.0,0.0,0.008339790625796718,5.111255268035098,490.64096456754015,0.0,0.0,0.0,,,,,-0.0019253921717299997,1.5534759421771707,-69.68081424797765
e7NIVznoeNMC7bBejXnMVvFNPfx1,86.32499999635752,-7.030555554562056,93.35555555091958,-7.030555554562056,90.19722221744439,-7.030555554562056,97.22777777200645,-7.030555554562056,-0.02777777777777779,0.0,108,0.006757137403960546,6.308410828737691,414.273232220828,0.0,0.0,0.0,0.0056593920031561195,6.282208511986224,434.10968726534566,0.0,0.0,0.0,0.006299147415424171,6.767074329144399,338.85075252731474,0.0,0.0,0.0,,,,,-0.0010977454008044268,-0.026202316751467336,19.836455044517663
fEL2NrgSd4MmDtLCAcMvCJQXTME2,247.86944444187816,34.22777777496299,213.64166666691517,34.22777777496299,263.25650793390855,34.22777777496299,229.02873015894556,34.22777777496299,-0.02777777777777779,0.0,108,0.007288589952448839,5.848428715089307,695.1179446023993,0.0,0.0,0.0,0.005612414377884035,6.334792519061705,815.4319805989368,0.0,0.0,0.0,0.006528266193325343,6.5295742404002866,633.197043969748,0.0,0.0,0.0,,,,,-0.001676175574564804,0.48636380397239787,120.31403599653743
fEq0OghbLpfD1jigl1Mbz96aMbg2,83.2277777799302,84.1333333324227,-0.9055555524925012,84.1333333324227,141.4588235314278,113.62773109166062,27.83109243976719,113.62773109166062,0.0,0.02777777777777779,108,0.007773651452753952,3.64463645080524,367.85392279117787,0.0,0.0,0.0,0.005322319920972089,5.323267646674548,273.16465028372204,0.0,0.0,0.0,0.007084402668858201,5.018557283760993,355.33715808726157,0.0,0.0,0.0,,,,,-0.0024513315317818626,1.678631195869308,-94.68927250745583
foaW7wtvY3XLNdguFUK7OvOefP93,152.90277777777453,3.474999999997749,149.42777777777678,3.474999999997749,152.90277777777453,3.474999999997749,149.42777777777678,3.474999999997749,0.0,0.0,108,0.007589718487200803,5.616387332718394,434.80027847130776,0.0,0.0,0.0,0.006753489201223116,6.3118186022557214,493.10500888804887,0.0,0.0,0.0,0.0081949916049307,5.2015671065197715,489.45028434030723,0.0,0.0,0.0,,,,,-0.0008362292859776868,0.6954312695373277,58.30473041674111
g2G9l3no7RbeRA9a1W3JnfegTnh2,-3.165714260509958,-142.7314285550799,139.56571429456994,-142.7314285550799,20.743290069092836,-151.7642856982576,172.50757576735043,-151.7642856982576,-0.05714285714285716,-0.02857142857142858,105,0.0047079537770800765,8.99351757702112,241.86321222584195,0.0,0.0,0.0,0.0042863709262785646,6.540172162236127,514.7433160072328,0.0,0.0,0.0,0.005145617917573686,6.853133250668846,390.08316848233665,0.0,0.0,0.0,,,,,-0.0004215828508015119,-2.4533454147849927,272.88010378139086
h12a1QYNpYbl3T0Gj1PxUz3EnEx2,301.80555555555884,121.27777777778101,180.52777777777783,121.27777777778101,320.37056277056456,126.55238095238258,193.81818181818198,126.55238095238258,-0.05555555555555558,0.02777777777777779,108,0.011063926717452245,3.213459517841171,606.9598166646621,0.0,0.0,0.0,0.004984174189317099,4.811018198236196,662.2936649928454,0.0,0.0,0.0,0.007772615499014467,5.484228413951274,527.674739659471,0.0,0.0,0.0,,,,,-0.006079752528135146,1.597558680395025,55.33384832818331
h52Mz0cZjnOsmXT02EgU3JzzRKs2,85.00833333325056,53.08888888938566,31.919444443864904,53.08888888938566,78.18235294134934,45.405714286053694,32.77663865529564,45.405714286053694,-0.05555555555555558,-0.02777777777777779,108,0.008992579855434966,4.740219097932199,333.15838639746545,0.0,0.0,0.0,0.006233966782824287,4.544800193453444,343.5653558255,0.0,0.0,0.0,0.007777565371542771,4.571286632315595,357.2557318936928,0.0,0.0,0.0,,,,,-0.0027586130726106797,-0.1954189044787551,10.406969428034529
h5RYP03wJuVN0xo7qAR8CKFxLaj1,295.33611111342896,16.341666671964845,278.9944444414641,16.341666671964845,295.93500000167467,16.341666671964845,279.5933333297098,16.341666671964845,-0.02777777777777779,0.0,108,0.00708208745740544,6.018959667864615,507.5864741793121,0.0,0.0,0.0,0.006016017952044051,5.909802945786457,752.7750345300394,0.0,0.0,0.0,0.006529477911488112,6.528362504361128,451.0385961651261,0.0,0.0,0.0,,,,,-0.0010660695053613892,-0.10915672207815774,245.1885603507273
hOrA1ssI5vaeeeXRJhtjrGrqHQn1,64.73611111111438,90.21666666665828,-25.4805555555439,90.21666666665828,64.73611111111438,90.21666666665828,-25.4805555555439,90.21666666665828,0.0,0.0,108,0.00710540975797514,5.999203455165793,484.7830261087338,0.0,0.0,0.0,0.0062150028070539366,6.8586934059036,423.49214538244485,0.0,0.0,0.0,0.005823904871301446,7.319281429280548,374.50298947265435,0.0,0.0,0.0,,,,,-0.0008904069509212036,0.8594899507378075,-61.29088072628895
hrRr560eFBNwJ0CcUjCqtSD8TdP2,42.716666666480364,-37.33611111166999,80.05277777815036,-37.33611111166999,42.716666666480364,-37.33611111166999,80.05277777815036,-37.33611111166999,0.0,0.0,108,0.011225357199701271,3.7973668019711284,512.7310395485356,0.0,0.0,0.0,0.007566291167832382,5.633777213284944,357.9386780550152,0.0,0.0,0.0,0.01101196248434656,3.870953867760351,468.9598390922274,0.0,0.0,0.0,,,,,-0.0036590660318688894,1.8364104113138153,-154.7923614935204
htPWXDgfuheOJbl6ihHore9XuDp2,42.60555579927234,-24.108333057827394,66.71388885709973,-24.108333057827394,55.99714306422652,-6.45999973842072,62.45714280264724,-6.45999973842072,0.0,0.0,108,0.0077529402581925175,4.585806085288074,550.8098070386371,0.0,0.0,0.0,0.0060337301273352345,5.892454562033279,424.9573875186383,0.0,0.0,0.0,0.007050074213937555,5.042993809144185,485.88008668642584,0.0,0.0,0.0,,,,,-0.001719210130857283,1.3066484767452051,-125.85241951999882
i1bdbtLuM9UR71xKs8yOhuCwJ9o1,62.62499999668864,23.33888888027934,39.2861111164093,23.33888888027934,62.62499999668864,23.33888888027934,39.2861111164093,23.33888888027934,0.0,0.0,108,0.009032775019223952,4.719125482445091,579.1643794003837,0.0,0.0,0.0,0.008904358357342953,4.787183653189467,634.411270954291,0.0,0.0,0.0,0.008722879058260025,4.8867808994839,584.1375140149073,0.0,0.0,0.0,,,,,-0.00012841666188099891,0.0680581707443757,55.24689155390729
i1tBstVkNiVP0qro7TgGD08IGGa2,135.8435714123741,85.21388887034527,50.62968254202883,85.21388887034527,140.23382351289388,85.21388887034527,55.019934642548606,85.21388887034527,-0.02857142857142858,0.0,107,0.006258041900179637,6.811523388680027,584.3206482534313,0.0,0.0,0.0,0.006038665399607419,5.839635567232148,797.7681803137018,0.0,0.0,0.0,0.006339394031929674,6.724112518596332,683.0271772218671,0.0,0.0,0.0,,,,,-0.00021937650057221852,-0.9718878214478792,213.44753206027053
iKVZi0Oo96UrMBhPQMHWFcf55uA3,130.00980392154838,131.84313725490438,-1.833333333355995,131.84313725490438,129.70588235292053,131.84313725490438,-2.1372549019838516,131.84313725490438,-0.05555555555555558,0.0,106,0.0056739654155459835,7.410500966168418,512.5035702971134,0.0,0.0,0.0,0.004979161773591414,5.690141178145836,768.1223081745745,0.0,0.0,0.0,0.005339273835722021,7.983632246996159,551.3014670725536,0.0,0.0,0.0,,,,,-0.0006948036419545693,-1.7203597880225816,255.61873787746117
iWsc4pghIEWOQUZKuQJMfe516UI3,125.66388889484938,62.55833333896271,63.10555555588667,62.55833333896271,132.71258170591068,62.55833333896271,70.15424836694797,62.55833333896271,-0.05555555555555558,0.0,108,0.010398678549979766,4.099251512154508,387.73456812481874,0.0,0.0,0.0,0.005820879907010868,4.867328289394524,340.43901163477034,0.0,0.0,0.0,0.00833773195837214,5.112517286863665,343.8493804330211,0.0,0.0,0.0,,,,,-0.004577798642968899,0.7680767772400161,-47.2955564900484
iZScIvzhvAdvlsBXU5D8IHwvG6Q2,242.00476189530082,-31.966666662030775,273.9714285573316,-31.966666662030775,229.22450979355904,-31.966666662030775,261.1911764555898,-31.966666662030775,-0.02857142857142858,0.0,107,0.005358011659939043,7.955712207408327,605.7765052668879,0.0,0.0,0.0,0.0048978095743104685,7.199872659631965,863.7822648463431,0.0,0.0,0.0,0.006139001161349544,6.943604936709688,745.7770854668138,0.0,0.0,0.0,,,,,-0.0004602020856285744,-0.755839547776362,258.00575957945523
iZX3U88SSqYAtT564nBPgHUBsei1,203.15555555787353,95.29444444427884,107.86111111359469,95.29444444427884,205.51142857330194,104.08634920602753,101.4250793672744,104.08634920602753,0.0,0.02777777777777779,108,0.00802932107488012,4.42795602309688,545.6734911603211,0.0,0.0,0.0,0.006169453803928986,5.7628246753792185,570.5048343742765,0.0,0.0,0.0,0.008043722667988648,5.299386929394488,589.9167525297332,0.0,0.0,0.0,,,,,-0.0018598672709511342,1.3348686522823385,24.831343213955392
idP8RVfm74N86O0dszLXANIpjXv2,4.011111112104459,-39.544444448418176,43.555555560522635,-39.544444448418176,4.011111112104459,-17.413725493293214,21.424836605397672,-17.413725493293214,0.0,-0.05555555555555558,108,0.006653010328043001,6.407144535870874,478.67006899090023,0.0,0.0,0.0,0.00683771586966983,6.234069912073065,507.63143715022704,0.0,0.0,0.0,0.006304097328267142,4.494241120536451,612.5549621528799,0.0,0.0,0.0,,,,,0.0001847055416268296,-0.1730746237978087,28.96136815932681
iv9ew8Ci8lOzvXFiJw1acJfuRAl2,385.9952380952052,75.11111111108846,310.88412698411673,75.11111111108846,408.75490196075066,75.11111111108846,333.6437908496622,75.11111111108846,-0.02857142857142858,0.0,107,0.006424136747949659,6.635412732149274,365.73507757386375,0.0,0.0,0.0,0.004671398728178624,7.548832223086825,514.774612017423,0.0,0.0,0.0,0.006178971103033035,6.898688804271836,400.2118075806279,0.0,0.0,0.0,,,,,-0.0017527380197710348,0.9134194909375513,149.03953444355926
jpklrtZKDdb3UbsoQ7Ho5KuR5yb2,165.2319047481294,126.04444444345108,39.187460304678325,126.04444444345108,165.2319047481294,142.12904761821505,23.102857129914355,142.12904761821505,0.0,-0.02777777777777779,107,0.00740902274566556,5.75336319426888,637.4345248310349,0.0,0.0,0.0,0.0067230169733008055,6.297926245630823,725.1455928440864,0.0,0.0,0.0,0.005630046432396046,6.314953356390566,627.3766710620824,0.0,0.0,0.0,,,,,-0.0006860057723647546,0.5445630513619424,87.71106801305154
jzdk8E3tVXTXIozlfK5oeEb7wWp2,37.072222219573064,99.00000000331136,-61.92777778373829,99.00000000331136,37.072222219573064,99.00000000331136,-61.92777778373829,99.00000000331136,0.0,0.0,108,0.006182170749523202,6.895118316442614,304.50123376816146,0.0,0.0,0.0,0.007475752496568475,5.702007763095391,512.9711569941902,0.0,0.0,0.0,0.006922196413298751,6.15798746890794,513.2276696580973,0.0,0.0,0.0,,,,,0.0012935817470452731,-1.193110553347223,208.46992322602875
k8j7IpYfd8dYB0L1qyLCcrwoFOy1,51.644444412655275,-44.20833341280627,95.85277782546154,-44.20833341280627,51.644444412655275,-44.20833341280627,95.85277782546154,-44.20833341280627,0.0,0.0,108,0.007758066380471253,5.494513282035606,468.71762658159656,0.0,0.0,0.0,0.006456378995608573,6.602276415217665,367.5457052384845,0.0,0.0,0.0,0.007892847151675722,5.40068722366721,436.1669570167024,0.0,0.0,0.0,,,,,-0.00130168738486268,1.1077631331820594,-101.17192134311205
kI0YdycDU0X5hcoEPjEON3Ionyd2,119.33611111177333,-56.949999999668876,176.2861111114422,-56.949999999668876,119.33611111177333,-56.949999999668876,176.2861111114422,-56.949999999668876,0.0,0.0,108,0.006628696560228398,6.4306456605919,401.1933771692969,0.0,0.0,0.0,0.005528751516568767,7.71002253269434,314.21902398705936,0.0,0.0,0.0,0.007441193721714099,5.728489321010985,441.6053421090747,0.0,0.0,0.0,,,,,-0.0010999450436596312,1.27937687210244,-86.97435318223756
kR2rCtaPyPaj7YMizKUDn5xL2qx1,268.9805555555955,64.24444444443918,204.73611111115633,64.24444444443918,289.2462121212492,64.24444444443918,225.00176767681,64.24444444443918,-0.08333333333333337,0.0,108,0.008847365507716911,4.818021673596841,500.85282173495847,0.0,0.0,0.0,0.00512593915687104,4.677962807233332,674.5687139877191,0.0,0.0,0.0,0.006653067016792708,6.407089942551429,361.68082460168614,0.0,0.0,0.0,,,,,-0.0037214263508458714,-0.14005886636350962,173.71589225276063
kgSRatooJJfDaMZ2yIURqb8aJuE3,199.6194444435339,125.28888889029622,74.33055555323767,125.28888889029622,198.0493650786816,125.28888889029622,72.76047618838538,125.28888889029622,-0.02777777777777779,0.0,108,0.006310408077214784,6.754998765345668,338.4684103331605,0.0,0.0,0.0,0.004748023955535016,7.4880583897323465,312.14046796933553,0.0,0.0,0.0,0.005385640384294845,7.914898828877976,269.7131808248364,0.0,0.0,0.0,,,,,-0.0015623841216797678,0.7330596243866783,-26.327942363824945
kxerHPSL3bQjD74HhiebYf3blPr1,131.58333333331393,-9.86111111110472,141.44444444441865,-9.86111111110472,128.8222222222089,-9.86111111110472,138.6833333333136,-9.86111111110472,-0.02777777777777779,0.0,108,0.00880231400896749,4.842680995813885,442.3388932715566,0.0,0.0,0.0,0.007298160031297839,4.871567691366673,523.38869865037,0.0,0.0,0.0,0.00904093559880425,4.714865879152043,446.4087563174834,0.0,0.0,0.0,,,,,-0.0015041539776696512,0.028886695552787778,81.04980537881335
lHDkoPQu5reNCO45npeYSS9eLQl1,106.92222224341504,-3.4694444073570594,110.3916666507721,-3.4694444073570594,107.9393790968104,-3.4694444073570594,111.40882350416746,-3.4694444073570594,-0.05555555555555558,0.0,108,0.008077772321762981,5.277048804107648,425.1526753315403,0.0,0.0,0.0,0.005764395934334694,4.915022105231596,471.70250373083763,0.0,0.0,0.0,0.010275237736916167,4.148497568797516,542.9887733264126,0.0,0.0,0.0,,,,,-0.002313376387428287,-0.36202669887605143,46.549828399297326
lS4TefGwYUYBhCDMI0Ws2WxSQmm1,141.12777777792257,95.95611111157473,45.171666666347846,95.95611111157473,148.27611111123406,84.28611111164923,63.989999999584825,84.28611111164923,-0.02777777777777779,-0.02857142857142858,107,0.006209726203181992,6.864521458058867,497.993955973943,0.0,0.0,0.0,0.00586220605173622,6.064863688024784,695.0929610596081,0.0,0.0,0.0,0.005416565714336135,6.510325380679627,553.0265054075209,0.0,0.0,0.0,,,,,-0.0003475201514457713,-0.7996577700340834,197.0990050856651
lpzDdvuMkKWkPxu6xeclmdctEp42,103.29444443517264,2.863888886239806,100.43055554893283,2.863888886239806,103.29444443517264,2.863888886239806,100.43055554893283,2.863888886239806,0.0,0.0,108,0.009527048282421907,4.474292299857735,574.0523009982302,0.0,0.0,0.0,0.007148923047378693,5.962688154272865,500.1947082231774,0.0,0.0,0.0,0.00887548358721455,4.802757883730259,542.1663661047073,0.0,0.0,0.0,,,,,-0.002378125235043214,1.4883958544151294,-73.85759277505281
m69r9GQTk2b51mvxrFLt4fZeJi52,149.6111111111079,89.16666666665856,60.444444444449346,89.16666666665856,144.09682539682217,97.52539682538861,46.57142857143356,97.52539682538861,-0.02777777777777779,-0.02777777777777779,108,0.009432779680389141,4.519007144737495,446.50530009751435,0.0,0.0,0.0,0.0063232141367864335,5.622691220918075,403.57905198173586,0.0,0.0,0.0,0.007381141788799898,4.816799572776503,468.75060815059436,0.0,0.0,0.0,,,,,-0.003109565543602708,1.1036840761805795,-42.92624811577849
mUZzgdWKnPb2txOkJg9FHgqX5792,135.92222221692396,-49.92222221361271,185.84444443053667,-49.92222221361271,135.92222221692396,-49.92222221361271,185.84444443053667,-49.92222221361271,0.0,0.0,108,0.006401761286517213,6.658604853040951,557.4801831935445,0.0,0.0,0.0,0.005280861557772757,8.071940213557003,455.9826402759928,0.0,0.0,0.0,0.006206241747947416,6.868375500279394,475.1987140125857,0.0,0.0,0.0,,,,,-0.0011208997287444561,1.4133353605160517,-101.49754291755164
mYRMPGfR5gRSjnp7ojjD5sXo7Jr2,182.5833333465788,111.16666667328934,71.41666667328946,111.16666667328934,187.2123809645101,115.79571429122063,71.41666667328946,115.79571429122063,0.02777777777777779,0.02777777777777779,108,0.0076206620998507295,4.665405728406531,376.55758626389616,0.0,0.0,0.0,0.00596150073021199,7.150346984675686,269.81496964885173,0.0,0.0,0.0,0.0067694080149464046,6.2969758472670065,329.2642373735349,0.0,0.0,0.0,,,,,-0.00165916136963874,2.4849412562691544,-106.74261661504443
mg2WZiRBn4NQDKiMK43Y8dBqyG53,144.111111111103,30.55555555555395,113.55555555554906,30.55555555555395,144.111111111103,25.199206349204815,118.9119047618982,25.199206349204815,0.0,-0.02777777777777779,108,0.00873036598776788,4.882590126248731,462.10718074556996,0.0,0.0,0.0,0.006949400919303944,6.133881073403766,449.0178960906658,0.0,0.0,0.0,0.0074111985485326125,4.797264623538332,453.5022515442074,0.0,0.0,0.0,,,,,-0.0017809650684639357,1.2512909471550353,-13.08928465490419
mweMgSlGM2VxThhwnupYxYzUbR23,106.00277777779331,104.20000000004404,1.8027777777492702,104.20000000004404,106.00277777779331,104.20000000004404,1.8027777777492702,104.20000000004404,0.0,0.0,108,0.008055106386849389,5.291897676237385,332.4824290559241,0.0,0.0,0.0,0.007668099804732556,5.558978085301527,405.43610564092154,0.0,0.0,0.0,0.008821750800049268,4.83201121144514,489.7771918475821,0.0,0.0,0.0,,,,,-0.00038700658211683267,0.26708040906414254,72.95367658499742
mwsliuPsLFhRFjtjQwYkqcCRDvi2,-43.71944444709345,-39.35555553436279,-4.363888912730658,-39.35555553436279,-47.75412698700313,-39.35555553436279,-8.39857145264034,-39.35555553436279,-0.02777777777777779,0.0,108,0.008164328045323391,5.221103137181052,437.1365859117086,0.0,0.0,0.0,0.008113061632378578,4.382252006197396,445.1816565741534,0.0,0.0,0.0,0.008667016617274764,4.918278186458199,432.7961763128886,0.0,0.0,0.0,,,,,-5.1266412944813225e-05,-0.8388511309836559,8.0450706624448
nHy6rdfyacWW9BnyDb1dNvNYWfh1,262.8888888883715,122.78333333320916,140.10555555516237,122.78333333320916,275.2201587296046,122.78333333320916,152.43682539639542,122.78333333320916,-0.02777777777777779,0.0,108,0.008871515895291787,4.8049058665425735,501.72268968039185,0.0,0.0,0.0,0.005901168862858626,6.024820072285041,558.108698293616,0.0,0.0,0.0,0.0068059306889054014,6.263184378280654,440.4432345783229,0.0,0.0,0.0,,,,,-0.002970347032433161,1.2199142057424677,56.38600861322419
nT1qJOiMyDdJ9ui4el195A8Hsgs1,111.68888889087577,84.88055556681422,26.80833332406155,84.88055556681422,111.68888889087577,84.88055556681422,26.80833332406155,84.88055556681422,0.0,0.0,108,0.007559473302129777,5.638858299612447,562.3716061724801,0.0,0.0,0.0,0.0076724090290445955,5.555855873826019,684.656853089891,0.0,0.0,0.0,0.007341395782725821,5.806361628222432,625.3896320025265,0.0,0.0,0.0,,,,,0.00011293572691481891,-0.08300242578642791,122.28524691741086
o4jXmZcjtMVF2ZInToRpVHUhpdV2,174.53087301292112,199.85865079599694,-25.327777783075817,199.85865079599694,174.53087301292112,199.85865079599694,-25.327777783075817,199.85865079599694,0.0,0.0,107,0.006866409226325571,6.166405707897294,608.7909541531781,0.0,0.0,0.0,0.005655154395774972,7.537689652162309,571.5875869666128,0.0,0.0,0.0,0.005104467978567737,8.350879846713008,449.57227916880765,0.0,0.0,0.0,,,,,-0.001211254830550599,1.3712839442650155,-37.20336718656529
ohl9pXqpeSMfepC3w9h0tW5SbJw1,279.3444444443933,193.37777777772862,85.96666666666465,193.37777777772862,279.3444444443933,193.37777777772862,85.96666666666465,193.37777777772862,0.0,0.0,108,0.006331857016338614,6.732116448684761,637.0156145153718,0.0,0.0,0.0,0.005723680181918988,7.447445946590545,800.6897777353817,0.0,0.0,0.0,0.006235164768567179,6.836515208917037,814.2392381189975,0.0,0.0,0.0,,,,,-0.0006081768344196265,0.7153294979057838,163.67416322000986
pFlYc8DBmSXkvMIRgXFxvo3JB6j1,68.47222222225776,9.083333333352698,59.38888888890506,9.083333333352698,68.47222222225776,9.083333333352698,59.38888888890506,9.083333333352698,0.0,0.0,108,0.008156174835136316,5.226322342525013,452.12031888272105,0.0,0.0,0.0,0.00787811382793087,5.410787366296384,498.21612652920976,0.0,0.0,0.0,0.008701965503135721,4.898525368211675,499.0519427947503,0.0,0.0,0.0,,,,,-0.0002780610072054459,0.18446502377137097,46.09580764648871
pRQimOpZtsekBI2I1kbnD3pycmo1,124.36111111111109,72.16111110978659,52.2000000013245,72.16111110978659,124.36111111111109,72.16111110978659,52.2000000013245,72.16111110978659,0.0,0.0,108,0.009092352965375174,4.688203255278521,483.9733855324386,0.0,0.0,0.0,0.005794634575334261,7.356253136627566,241.86825223985772,0.0,0.0,0.0,0.007249276018237204,5.880145639809518,412.4813198237915,0.0,0.0,0.0,,,,,-0.0032977183900409126,2.668049881349045,-242.1051332925809
pYrcE6tMnVQP1kHAjYwvIz5NOvn1,75.75833333336698,233.66944444449234,-157.91111111112536,233.66944444449234,48.60294117649789,216.7506535948171,-168.1477124183192,216.7506535948171,0.0,0.05555555555555558,108,0.005185158082039635,5.4640828673476864,448.98582714118066,0.0,0.0,0.0,0.004906896650823036,5.7739413435190245,442.96375605870196,0.0,0.0,0.0,0.006164302116662793,6.915105386413204,588.7701327310513,0.0,0.0,0.0,,,,,-0.000278261431216599,0.3098584761713381,-6.022071082478703
pcbRW89vVJcviD87V3uxyG4I9st2,90.58611111111043,25.91666666667959,64.66944444443084,25.91666666667959,90.58611111111043,26.72301587302934,63.86309523808109,26.72301587302934,0.0,-0.02777777777777779,108,0.009298199427770906,4.584414337586679,370.7317601342434,0.0,0.0,0.0,0.007693695626743426,5.540484162414961,350.92701075238057,0.0,0.0,0.0,0.008592094044400282,4.1379296398722945,409.70760514931885,0.0,0.0,0.0,,,,,-0.0016045038010274798,0.9560698248282815,-19.804749381862848
q0Atnpm0jZS5swcVmq0EMalQUKw1,56.305555555556,-37.4722222222224,93.7777777777784,-37.4722222222224,57.683333333333735,-37.4722222222224,95.15555555555613,-37.4722222222224,-0.02777777777777779,0.0,108,0.008858090249048033,4.812188357980914,480.83511366765066,0.0,0.0,0.0,0.0070305249466063955,5.057016493776279,462.93324899044006,0.0,0.0,0.0,0.009949935245592432,4.284128259959862,498.14033369516983,0.0,0.0,0.0,,,,,-0.0018275653024416375,0.24482813579536522,-17.901864677210597
qZZiI6GzgxOrpQDGu42ZA0xsGEJ2,77.09531745820766,-23.255555550257327,100.35087300846499,-23.255555550257327,83.38153594547248,-23.255555550257327,106.6370914957298,-23.255555550257327,-0.02857142857142858,0.0,107,0.006549745566746235,6.508161017251426,381.61133539101525,0.0,0.0,0.0,0.006596630042490337,5.345700004247778,565.9868676933463,0.0,0.0,0.0,0.008032060317594373,5.30708150647704,520.1888331533123,0.0,0.0,0.0,,,,,4.688447574410174e-05,-1.1624610130036483,184.37553230233107
qnR5PLX1v3fPi6SwTJMwGcadwyD3,283.3833333361481,103.90388888562961,179.47944445051849,103.90388888562961,279.2594444474531,99.9047058789921,179.35473856846102,99.9047058789921,0.02777777777777779,-0.0007936507936507908,107,0.005654093621851549,6.288095491997075,156.6868024239418,0.0,0.0,0.0,0.00643746055812236,6.621679214271773,461.09745422085354,0.0,0.0,0.0,0.006731101214577751,5.238905807832773,414.84556410565614,0.0,0.0,0.0,,,,,0.0007833669362708106,0.3335837222746978,304.41065179691174
qsRKc69hK6e8Uu6vr2pBO8NbpMt2,126.28333333332716,27.850000000007412,98.43333333331975,27.850000000007412,92.9482638888827,27.850000000007412,65.0982638888753,27.850000000007412,-0.11111111111111116,0.0,108,0.009893832146000923,4.308421463127703,439.4015470645537,0.0,0.0,0.0,0.005438543225025828,3.823526734348903,470.6289791366789,0.0,0.0,0.0,0.009112124868020377,4.678030578796704,429.37383278330753,0.0,0.0,0.0,,,,,-0.004455288920975095,-0.4848947287788006,31.22743207212517
rFV2EUbp64f5ORSh7DqwmCQmeqT2,-9.90833333217438,-27.422222223546783,17.513888891372403,-27.422222223546783,-0.48849206233307996,-27.422222223546783,26.933730161213703,-27.422222223546783,-0.02777777777777779,0.0,108,0.006361504463903442,6.700741784005169,463.0690202945549,0.0,0.0,0.0,0.005966215449169962,5.959134549832666,502.9525122470368,0.0,0.0,0.0,0.005789363199823466,7.362951208815679,329.44116209380024,0.0,0.0,0.0,,,,,-0.0003952890147334801,-0.7416072341725028,39.883491952481904
rNe3cRPepZUXbJhmmfQZiGsVzX22,74.49722221907632,110.4722222213943,-35.975000002317984,110.4722222213943,74.49722221907632,110.4722222213943,-35.975000002317984,110.4722222213943,0.0,0.0,108,0.00671612184763451,6.3469364817177665,446.09376071139536,0.0,0.0,0.0,0.007471880027572592,5.704962956192094,608.8228454140383,0.0,0.0,0.0,0.006693335736943804,6.368543346053147,553.4328607787746,0.0,0.0,0.0,,,,,0.0007557581799380823,-0.6419735255256729,162.72908470264292
rUuJv5gl7dWVo7UPQWMx4bohxhK2,380.4592857142859,322.5592857142692,57.90000000001669,322.5592857142692,396.93382352941126,322.5592857142692,74.37453781514205,322.5592857142692,-0.02857142857142858,0.0,106,0.006605039735265598,6.453677870069486,598.6036681210248,0.0,0.0,0.0,0.004721903134291161,7.468091623920042,724.9044209327855,0.0,0.0,0.0,0.005445880510856581,7.774879555576739,702.6981990569868,0.0,0.0,0.0,,,,,-0.0018831366009744365,1.0144137538505564,126.30075281176062
roaf78tUWxWSEjAUcUu8O7mrQbl1,100.62777778506279,-7.966666662030661,108.59444444709345,-7.966666662030661,100.62777778506279,-7.966666662030661,108.59444444709345,-7.966666662030661,0.0,0.0,108,0.00924664869746487,4.609972776634207,526.8102468290614,0.0,0.0,0.0,0.006913900482358664,6.165376386191655,436.30871834622775,0.0,0.0,0.0,0.008856653550861036,4.81296897588018,497.02998533452694,0.0,0.0,0.0,,,,,-0.0023327482151062062,1.5554036095574482,-90.50152848283363
s5gTyWKzfkdHXNT3qicwPmdONYv1,190.32222222209543,43.391666666656306,146.93055555543913,43.391666666656306,190.32222222209543,43.391666666656306,146.93055555543913,43.391666666656306,0.0,0.0,108,0.009102551224663913,4.682950715499772,603.8736005435366,0.0,0.0,0.0,0.007126026726352485,5.981846603630699,636.2239461527381,0.0,0.0,0.0,0.008210105168698004,5.191991806990842,589.9407709500613,0.0,0.0,0.0,,,,,-0.001976524498311428,1.298895888130927,32.350345609201554
sqfXvh6GJLaYAqr3RvHrixP8IOx1,-3.4527777896987573,63.34999999735089,-66.80277778704965,63.34999999735089,-6.428571442195334,59.43666666235242,-65.86523810454776,59.43666666235242,0.0,0.02777777777777779,108,0.005791319569357024,6.139098384937068,374.10001179764146,0.0,0.0,0.0,0.006698226627517157,5.307894550601793,494.04704591908785,0.0,0.0,0.0,0.006877455918052564,6.198047545244536,496.02737685020645,0.0,0.0,0.0,,,,,0.0009069070581601332,-0.831203834335275,119.94703412144639
ssPK6ISW0HerTGke9hznqJ2LpKu1,133.64444451861914,57.572222391764285,76.07222212685485,57.572222391764285,133.64444451861914,57.572222391764285,76.07222212685485,57.572222391764285,0.0,0.0,108,0.007490604176404019,5.690702347440932,401.8844140658298,0.0,0.0,0.0,0.006053298913397765,7.041912084676228,339.33148770467903,0.0,0.0,0.0,0.008024334572427416,5.312191108890703,506.95061105136284,0.0,0.0,0.0,,,,,-0.0014373052630062538,1.3512097372352958,-62.55292636115075
tB4wPBbnWJUXeOC3Zxjph0Esgjf1,300.61428573472153,52.28833336849061,248.32595236623092,52.28833336849061,313.1447058998235,52.28833336849061,260.8563725313329,52.28833336849061,-0.02857142857142858,0.0,106,0.0060407431623140774,7.009247688284879,649.731772030715,0.0,0.0,0.0,0.004903584166772813,7.191393896144661,835.0870450167715,0.0,0.0,0.0,0.005625210965930149,7.577813352883683,610.7601345686423,0.0,0.0,0.0,,,,,-0.001137158995541264,0.1821462078597822,185.35527298605655
tPxs1KmmX0ZKjHS9Nr63xoOPCRr2,91.36944452921546,42.80000003178907,48.56944449742639,42.80000003178907,91.36944452921546,42.80000003178907,48.56944449742639,42.80000003178907,0.0,0.0,108,0.008110919679829838,5.255482787780175,525.8874523320187,0.0,0.0,0.0,0.008321926819415657,5.1222270629635664,633.0272068147649,0.0,0.0,0.0,0.0073549937031596475,5.795626820469073,500.6154856868499,0.0,0.0,0.0,,,,,0.0002110071395858195,-0.13325572481660863,107.13975448274618
tSvrYUUA5nbPdK6C5D73giKnIDv2,6.472222222209211,96.61111111109813,-90.13888888888891,96.61111111109813,15.153594771228654,96.61111111109813,-81.45751633986947,96.61111111109813,-0.05555555555555558,0.0,108,0.006289259431391564,6.7777135345459225,346.2462756702423,0.0,0.0,0.0,0.005530996488843718,5.122428390202275,473.6508412411442,0.0,0.0,0.0,0.005194123202073342,8.206736173180841,198.6646532087923,0.0,0.0,0.0,,,,,-0.0007582629425478462,-1.6552851443436474,127.40456557090187
tv88wS5Nf6SjruozSmXJxQSmx6J3,410.5972222305006,91.11944445470976,319.47777777579086,91.11944445470976,399.9200000081744,67.81523810497356,332.1047619032008,67.81523810497356,0.0,0.02777777777777779,108,0.0068381021317087815,5.199319918026676,739.2994052940452,0.0,0.0,0.0,0.005659518462270793,6.2820681391732505,974.1045411252726,0.0,0.0,0.0,0.006717085152094466,6.346026260679704,706.9088477116641,0.0,0.0,0.0,,,,,-0.001178583669437988,1.0827482211465744,234.8051358312274
u64Uf920g5VD9Byq26LT2rs5o4t1,98.30000000033112,73.70555555158194,24.594444448749186,73.70555555158194,98.30000000033112,73.70555555158194,24.594444448749186,73.70555555158194,0.0,0.0,108,0.00991689822922885,4.298400345057076,473.6073541160489,0.0,0.0,0.0,0.008275996681730359,5.150654405712101,480.07192202692784,0.0,0.0,0.0,0.008490292135146606,5.020651597364282,470.5568158403202,0.0,0.0,0.0,,,,,-0.0016409015474984912,0.8522540606550244,6.464567910878941
uM3kxG78g5ZtXtbAEzZyM4XFmaI3,34.872222220732056,-61.97222221891093,96.84444443964298,-61.97222221891093,34.872222220732056,-61.97222221891093,96.84444443964298,-61.97222221891093,0.0,0.0,108,0.0068478066739000205,6.224883499249844,522.5977581267744,0.0,0.0,0.0,0.007158332241845993,5.954850561591227,594.9765526384593,0.0,0.0,0.0,0.007405842767440056,5.755833617994541,524.7102828065701,0.0,0.0,0.0,,,,,0.00031052556794597223,-0.270032937658617,72.37879451168499
uhq0lYdK12b2vJDJLS0EPTVe9nP2,144.24999999999898,58.333333333335645,85.91666666666333,58.333333333335645,165.9327731092426,76.59126984127204,89.34150326797055,76.59126984127204,-0.02777777777777779,0.02777777777777779,108,0.006268101122549411,5.672129392901938,393.3910032273069,0.0,0.0,0.0,0.0050140221481930775,5.650580033989742,485.77793025367004,0.0,0.0,0.0,0.00579947940692627,7.3501077906241665,281.22110828265704,0.0,0.0,0.0,,,,,-0.001254078974356333,-0.021549358912195338,92.38692702636314
v8nNKiWvPdcjiHXZci39OuFTY6M2,217.53055555207857,14.766666668984726,202.76388888309384,14.766666668984726,217.53055555207857,14.766666668984726,202.76388888309384,14.766666668984726,0.0,0.0,108,0.006779837725907782,6.2872889431443895,647.2127335577256,0.0,0.0,0.0,0.0069904200358476935,6.097888045613565,891.4941078727093,0.0,0.0,0.0,0.007439166701315014,5.730050216898366,738.3458213726412,0.0,0.0,0.0,,,,,0.00021058230993991137,-0.18940089753082479,244.28137431498362
vpFmF3TtdQTW3MyS8ouwz3urZVs2,285.4638888887648,72.69722222205667,212.76666666670815,72.69722222205667,285.4638888887648,76.09674603159704,209.36714285716778,76.09674603159704,0.0,-0.02777777777777779,108,0.01056649457939867,4.034147602131174,587.895330883804,0.0,0.0,0.0,0.006339268217352115,6.7242459711253915,543.317821594667,0.0,0.0,0.0,0.0074172638831779235,4.7933417463450505,544.4133867045332,0.0,0.0,0.0,,,,,-0.004227226362046556,2.6900983689942173,-44.57750928913708
wJPD2B4ZTJhCyUqGTwc8yJSKPPH2,93.51944444514811,-64.72499999983438,158.2444444449825,-64.72499999983438,93.51944444514811,-64.72499999983438,158.2444444449825,-64.72499999983438,0.0,0.0,108,0.006108345979208555,6.978451927167403,217.02791769393878,0.0,0.0,0.0,0.007780995298117649,5.478322134537894,523.6492282240554,0.0,0.0,0.0,0.008242403645932796,5.171646597463998,402.65084016005585,0.0,0.0,0.0,,,,,0.0016726493189090945,-1.500129792629509,306.6213105301166
wdppvL4tIkVlGjou6aYzzjlaZXB2,109.22499999973104,40.61388888893032,68.61111111080072,40.61388888893032,119.58725490167228,53.737254901935216,65.84999999973707,53.737254901935216,-0.05555555555555558,-0.05555555555555558,108,0.006757628543572061,6.307952337948544,292.9197533932548,0.0,0.0,0.0,0.0045556726418430095,6.219088961822402,259.5457956762019,0.0,0.0,0.0,0.0050786442222638456,5.5786804904268115,312.21676004981975,0.0,0.0,0.0,,,,,-0.002201955901729052,-0.0888633761261417,-33.37395771705286
