participant_id,task,n_trials,rt_slope,rt_slope_r,rt_slope_p,acc_slope,acc_slope_r,acc_slope_p,q1_rt,q4_rt,rt_q4_q1_diff,q1_acc,q4_acc,acc_q4_q1_diff,mean_rt,mean_acc
06qcrpGKL6Vc3LVplFQC90VAcRm1,stroop,108,-2.154797221931612,-0.41844327684547555,6.588556903596261e-06,-6.192422380367167e-05,-0.02015612082314387,0.8359691201076815,821.9185185173044,664.5777777803165,-157.34074073698787,1.0,1.0,0.0,696.8370370373682,0.9907407407407407
0ZtXlQtAJkW6jS21vfMOtNL4OnL2,stroop,108,-1.0336167557423288,-0.1290207894129227,0.183257824345205,7.621442929682662e-05,0.017624124079995192,0.8563376764676711,714.1888888888838,669.2481481481465,-44.94074074073728,1.0,1.0,0.0,685.4342592592627,0.9814814814814815
0d841i8KPjdjwCYfDuUUXj0SEjH2,stroop,108,-0.8846346950706356,-0.09544214417877765,0.32582030273106066,-0.0009098097497308679,-0.1725971339930545,0.07406021152062447,963.4259258906046,888.9222221727724,-74.5037037178322,1.0,0.9259259259259259,-0.07407407407407407,915.9768518077003,0.9722222222222222
0oa5NYVnIBS9NmrmRAZrahXDctP2,stroop,108,1.2237612773640276,0.26655573641662156,0.005294710988324078,-0.0004191793611325464,-0.06919767399836012,0.4767068617774579,509.0666666660044,631.9962962959652,122.9296296299608,0.9629629629629629,0.9259259259259259,-0.03703703703703698,551.8935185176907,0.9629629629629629
146QT9LupyU2BAiTsB3PMIpVXM22,stroop,108,-2.1018767803282774,-0.2750704140190743,0.003962276793899266,-8.097783112787835e-05,-0.026358004153341986,0.7865601860652814,862.0555555566593,666.2037037048075,-195.85185185185185,1.0,1.0,0.0,792.2277777779985,0.9907407407407407
1Vb7DcXYw9R86bw5qj9eBk9fPqA2,stroop,108,-2.8055760381112265,-0.19945586372182997,0.03849640909768305,0.0003572551373288748,0.11628531244121464,0.23072976320860084,1354.466666666446,1094.081481486559,-260.385185179887,0.9629629629629629,1.0,0.03703703703703709,1174.2796296325546,0.9907407407407407
1dpmVw8fpcc2IHs0s9WqdU8Yvi53,stroop,108,-2.1736607695238663,-0.2524992605279471,0.008379601718390394,-0.0002619871007078417,-0.08527589579022403,0.38021467218541716,975.5777777742456,820.166666675497,-155.41111109874862,1.0,0.9629629629629629,-0.03703703703703709,947.1749999964678,0.9907407407407407
1tT7dcLvf0bMGBdBWWYd8YkdJwr1,stroop,108,2.4998690065916063,0.20637085583002474,0.03212623677708026,-2.8580410986310028e-05,-0.006609046529998211,0.9458773783386782,852.366666648123,1027.1296296207993,174.7629629726763,1.0,1.0,0.0,905.6046296225654,0.9814814814814815
23AEyocWhqY955WHbxhHRSgQ1ms2,stroop,108,-1.0206231482382564,-0.1726700882700769,0.07393623183086069,0.0004048891556393914,0.13179002076670993,0.1739554424615166,885.0518518517966,821.6703703695977,-63.38148148219898,0.9629629629629629,1.0,0.03703703703703709,799.8120370366507,0.9907407407407407
2h5FgHUEvBS1twD5DqbTIRrMm1f2,stroop,108,-4.266005030180441,-0.432762304190814,2.9026679022227324e-06,0.00020482627873522156,0.06667024579962971,0.49299147494089957,891.074074074074,614.5222222164825,-276.5518518575915,1.0,1.0,0.0,770.1787037016065,0.9907407407407407
2zDXvJKvjeejeOSNbtDbtSI5cdz1,stroop,108,-0.7524769689562019,-0.11744644310611377,0.22607507435686547,0.0,,,734.8555555557488,667.9444444443064,-66.91111111144232,1.0,1.0,0.0,759.8231481482206,1.0
3WijiOiVCoMbn80F05SPYsxl0TC2,stroop,108,-0.2536278070174875,-0.03902320737288861,0.6884385934235877,0.0,,,897.7777777866081,880.1481481349027,-17.629629651705386,1.0,1.0,0.0,842.1453703697081,1.0
3xCaqfcHxRQxuOlEzXz3PNcHODH2,stroop,108,-1.465454380904724,-0.18628792311757272,0.05356137587143054,-0.00012861184943839486,-0.02439854773723806,0.8020893458504024,772.8814814802673,672.1444444435614,-100.73703703670594,1.0,0.9629629629629629,-0.03703703703703709,710.7749999987858,0.9722222222222222
4ySuGdFDDmaAr6JUXbD4UIY6BQ13,stroop,108,-0.9164423104402882,-0.11352548687380241,0.24206150281655198,0.0,,,864.855555555559,793.4111111111232,-71.44444444443582,1.0,1.0,0.0,827.692592592593,1.0
5OOi73igsahMZ5IVKQwwyhnj4Cn2,stroop,108,-0.42553231015428367,-0.07009678743167368,0.4709845674774613,-9.050463478998162e-05,-0.029458945818441024,0.7621568588064973,870.3037037037107,802.4777777778088,-67.82592592590186,1.0,1.0,0.0,832.4824074074471,0.9907407407407407
5rXSa3anB5ejmFrnwUsTB82byup1,stroop,108,-1.5218878314131878,-0.1647097893673664,0.08848357613278776,0.0,,,977.0000000000344,848.3037037037451,-128.69629629628935,1.0,1.0,0.0,860.4185185185246,1.0
5zxa5CMLGQSSonWOXqXf0QNS3PH3,stroop,108,-1.0453842635532542,-0.1820139588099309,0.0593873594854066,-0.0002619871007078417,-0.08527589579022403,0.38021467218541716,718.7925925872944,617.4925925908266,-101.29999999646782,1.0,0.9629629629629629,-0.03703703703703709,639.6620370304144,0.9907407407407407
62fAfeQc27bZelkPX7G54T3gvci2,stroop,107,1.056852602913528,0.0919066537968568,0.34643942549869966,-0.0004506357883187368,-0.14465408805031454,0.1371286413721408,956.7615384614238,1114.814814814884,158.0532763534601,1.0,0.9629629629629629,-0.03703703703703709,1019.0401869158861,0.9906542056074766
6ABZuv4jbjgE0B8TeyUk6nwVb122,stroop,108,1.0716315609044123,0.15100830537333731,0.11875428486849207,0.0,,,1001.78148149561,1089.0074074356644,87.22592594005437,1.0,1.0,0.0,1052.7157407645825,1.0
6WFCyGwk71XLPBmbe4Vav3eotVm1,stroop,108,-0.7506449647401179,-0.16935276382753733,0.07974526850670224,0.0,,,714.0407407901905,672.1111111464323,-41.929629643758176,1.0,1.0,0.0,682.9046296411091,1.0
7cvQFrzIDEVAkFCcGAHZPUvJ2MF3,stroop,108,-0.8059347223669749,-0.09294627797417984,0.33868866400996145,0.0,,,1267.0222222098598,1199.2444444409123,-67.77777776894754,1.0,1.0,0.0,1137.0101851776794,1.0
80UJMJbCOMgs6YVpsMgXfYTzw6o2,stroop,108,-1.8668900702119628,-0.3526340626674654,0.00018182107873325587,0.0,,,811.6629629629767,674.6370370372164,-137.02592592576036,1.0,1.0,0.0,746.8879629631044,1.0
87w5Le0CgZhSfYAaOH3Xd2fc98l1,stroop,106,-1.4396301987483289,-0.10087201365754535,0.3035482763124661,0.0,,,1433.8692307690014,1340.2851851855714,-93.58404558343,1.0,1.0,0.0,1369.4754716980992,1.0
8bwaafIhKVMNBoHaXFcY8HirS9u2,stroop,108,-1.5492183258181256,-0.2559431549087503,0.00750473953818499,0.0004096525574704431,0.09472966692997414,0.3294613628124079,734.4333333350994,629.514814818347,-104.91851851675244,0.9629629629629629,1.0,0.03703703703703709,671.455555540544,0.9814814814814815
8cOQBMgQEYSlJ4CK60pFMmBVEBV2,stroop,108,-4.635370641571164,-0.353289665291051,0.00017650704317322266,4.763401831051659e-06,0.001550470832549526,0.987293842498638,1366.3888889595314,1037.3666666172169,-329.02222234231454,1.0,1.0,0.0,1130.8009259170956,0.9907407407407407
8mscvscxtXf7EbbLqCyy4a4pl2q2,stroop,108,0.04627597231038476,0.004132140654823325,0.9661455855184662,0.0,,,1157.2925925961247,1057.8666666569534,-99.4259259391713,1.0,1.0,0.0,1059.4046296300712,1.0
9Xz1RIwnPXgyRqmucudW9VeuDnq1,stroop,106,-2.8144544927826183,-0.18581585316225452,0.056513931306312035,-0.00010580144595309467,-0.019521543103249307,0.842558114436448,1362.884615384602,1032.0000000000086,-330.8846153845934,0.9615384615384616,1.0,0.038461538461538436,1188.7264150943379,0.9716981132075472
9l7DjYLs0XdgwykPZR5E01KTZfu2,stroop,108,-2.0001919651509166,-0.25590328702367177,0.007514386614472454,-0.0002810407080320481,-0.05331534505544614,0.5836836130796348,874.7296296358109,739.7000000035322,-135.02962963227867,1.0,0.9629629629629629,-0.03703703703703709,797.673148151901,0.9722222222222222
A9AEg0g6c2P1Bk72HLmnK3oWJ9B2,stroop,108,-4.41150694988027,-0.4087904082941661,1.121387502914948e-05,0.0,,,1140.1407407566353,746.511111109345,-393.62962964729024,1.0,1.0,0.0,861.106481479274,1.0
ASGvwW80q7VY7xFaLGZhVuErUQu2,stroop,108,-0.5267236362021063,-0.08714580844857432,0.3698174954051445,-0.00040488915563939137,-0.07681024287649023,0.42946044924320637,909.2740741305881,879.755555541427,-29.51851858916109,0.9629629629629629,0.9259259259259259,-0.03703703703703698,869.6981480739735,0.9722222222222222
AUKCfn4HzgVB7m6LNnh2gQb7G5s2,stroop,108,-1.2491783137315433,-0.11766120934750599,0.22522142043108803,0.0002524602970457382,0.082174954125125,0.397842221169053,1022.4333334145723,890.2666666949236,-132.16666671964867,1.0,1.0,0.0,953.3259259550659,0.9907407407407407
AsXBOflrszVNKoFqbN61bMJqS0k2,stroop,108,-0.27038450185133783,-0.033809665027697965,0.728312470225333,5.7160821972619996e-05,0.009436046454321839,0.9227872659248624,765.0444444506256,724.2814814779493,-40.76296297267629,0.9629629629629629,1.0,0.03703703703703709,773.1583333291389,0.9629629629629629
AyAnuCaltBbpEYbudoyNzTvXlcC2,stroop,108,-3.683402402556423,-0.29865645010596026,0.0016918276487233276,0.000905046347899816,0.14940406886009566,0.1227674365575509,1213.9851851838607,959.7333333403976,-254.2518518434631,0.9629629629629629,1.0,0.03703703703703709,1018.8148148181261,0.9629629629629629
BbwUTWswjtPWhb5DvLAmh9Hdpyl2,stroop,108,0.43017519791930264,0.051635376066688665,0.5956123248897118,0.00047157678127411477,0.15349661242240337,0.11273108704765245,837.5370370370371,872.1296296296297,34.59259259259261,0.9629629629629629,1.0,0.03703703703703709,826.5296296296292,0.9907407407407407
BcCTlXWx6ARh4rBtkdWRgZH3C7H2,stroop,108,-0.5042956358028141,-0.06465777984411532,0.5061651996053982,-0.0002953309135252032,-0.0682934808099814,0.48249912731433087,980.8999999805733,977.5666666384096,-3.3333333421636553,1.0,1.0,0.0,963.4370370198179,0.9814814814814815
CDEoAyvS8feXLKMKsaZah9agEhF3,stroop,108,-0.8136943039237319,-0.10525500982652705,0.2783077465234636,0.0,,,900.6296296295778,848.2592592592765,-52.370370370301316,1.0,1.0,0.0,837.5398148148088,1.0
CGyTPhevTbSvVnZ8qSP0NtWuhgw1,stroop,108,-3.2017481682094258,-0.22951115013216655,0.01687666617129046,-0.00041441595930149475,-0.1348909624318088,0.16395679357524218,1173.6629629488345,1014.3925925978908,-159.27037035094372,1.0,0.9629629629629629,-0.03703703703703709,1055.3092592689727,0.9907407407407407
CUNlBEszJVRGK1jWlTaOaCqpDg53,stroop,108,-2.6790229310151483,-0.36757236866321175,9.100952531851225e-05,0.0,,,924.9370370370647,729.2259259260501,-195.7111111110146,1.0,1.0,0.0,789.0018518519656,1.0
Cbkx2NHyF3NrebzXGqNgSfiWent1,stroop,108,-0.5614212085613272,-0.0809665433771411,0.404840894678844,0.00047157678127411477,0.15349661242240337,0.11273108704765245,891.2259259240495,876.4111111114422,-14.814814812607324,0.9629629629629629,1.0,0.03703703703703709,851.0259259256223,0.9907407407407407
Co587hoelyeANqFX7AYvuVQW0lZ2,stroop,108,-0.5312398182382965,-0.07789400270647272,0.422959583934162,-0.0002905675116941517,-0.0945787207855212,0.3302360842981541,723.4222222191316,673.1074074065244,-50.31481481260721,1.0,0.9629629629629629,-0.03703703703703709,648.8416666636864,0.9907407407407407
CtJe4bZZnYUBNrcPk00d3YQFSGp2,stroop,108,-0.114887059742549,-0.019027425429895106,0.8450363199913449,0.0,,,805.1592592592868,783.7185185185496,-21.440740740737283,1.0,1.0,0.0,792.5842592592687,1.0
DAKDKPH698P12JfTbbjemLI6PIH2,stroop,108,-1.3936518143203047,-0.33408835919827823,0.0004098683389987449,0.0,,,702.9111111097866,600.3296296287466,-102.58148148103999,1.0,1.0,0.0,634.4694444432303,1.0
DPvStUYSmohmXwFwaKRqHv89R3k1,stroop,108,1.0238393972122326,0.0951952624088255,0.3270790419036864,7.145102746577497e-05,0.01355474874291005,0.8892665579164855,952.5370370414522,1091.5481481552124,139.0111111137602,0.9629629629629629,0.9629629629629629,0.0,995.4009259298996,0.9722222222222222
DaRehVxIOhXtEtUExdgvUl0mKcx2,stroop,108,-4.000359160467568,-0.30512269339920256,0.0013229099874793111,-0.00030009431535625504,-0.09767966245062025,0.31455403317526487,1385.6851851896004,1055.6629629709103,-330.0222222186901,1.0,0.9629629629629629,-0.03703703703703709,1244.5259259293477,0.9907407407407407
Df83JuPuJkXqTGbENhM2gw5SJM43,stroop,108,-0.026820810349824482,-0.0021594088705684405,0.9823042689231537,0.0008097783112787828,0.13367732476955932,0.16781794080831303,1049.344444444429,1047.555555555547,-1.7888888888819565,0.9629629629629629,1.0,0.03703703703703709,1097.955555555553,0.9629629629629629
DzB19GqCB7fyrlEPexogWkjFzEx2,stroop,106,-0.4146036229620216,-0.030821433127000735,0.7537959258140984,0.0,,,1248.3576923241983,1290.429629608437,42.07193728423863,1.0,1.0,0.0,1243.2245282969384,1.0
EEodWwGh0wWq5f8JmzfKvq0lyeu1,stroop,108,1.9013451846771219,0.2262423737576082,0.018550854067719138,-0.0014671277639639122,-0.19967812731130244,0.03827631360162616,675.814814814814,872.1481481481492,196.3333333333352,1.0,0.8888888888888888,-0.11111111111111116,728.3425925925934,0.9444444444444444
EUhcW9kURScie1DwGPHqmNqotJB2,stroop,108,-0.6409019021547181,-0.06489311529394742,0.5046153117192237,-0.0003382015300046683,-0.11008342911101644,0.25672769814049945,1098.2370370229085,1113.766666677263,15.529629654354494,1.0,0.9629629629629629,-0.03703703703703709,1137.662037041452,0.9907407407407407
EmfmKFDgWJdW47a6CNTNjnbYaPh2,stroop,108,-0.614397858697071,-0.08121926869308892,0.40337123162548594,0.0,,,908.1888889162628,871.2666666640175,-36.92222225224532,1.0,1.0,0.0,903.009259265882,1.0
EoToosG69XMp4LTYdB6sB9WTrv22,stroop,108,-0.48082778405378657,-0.09699094579937975,0.3179946107470805,-0.00048110358493621804,-0.15659755408750214,0.10556033635572692,740.9666666807951,700.2777777777778,-40.6888889030173,1.0,0.9629629629629629,-0.03703703703703709,727.3324074127056,0.9907407407407407
Fz7EUjZCLuUBxLDUVtN6djaBTy42,stroop,108,-0.07568997870287197,-0.010398826452848233,0.9149372098544604,0.0,,,1012.9888888685791,989.0185185096882,-23.970370358890932,1.0,1.0,0.0,983.6287037012754,1.0
G1Ff3XYUZMRsPafyEQ80ussnVlf1,stroop,108,-0.548139415073416,-0.06772586734353742,0.4861544340759889,0.0,,,1012.1407407389747,964.0962963104248,-48.04444442854992,1.0,1.0,0.0,975.4916666646799,1.0
G9VruXninjUdE9czK2DambZl5li2,stroop,108,-0.7790781864774187,-0.08897235427316348,0.35983140649435164,0.0003858355483151848,0.07319564321171414,0.45155161795591336,866.5185185184927,767.1851851851939,-99.33333333329881,0.9629629629629629,1.0,0.03703703703703709,763.5833333333312,0.9722222222222222
GDZGRW51kbWtAdUIHCtEd8sAtqY2,stroop,108,-1.4014194932500412,-0.1888434503196778,0.05030847680689721,0.0,,,993.7888888694622,940.8222222416489,-52.96666662781331,1.0,1.0,0.0,957.7870370502825,1.0
GE4hogtdLdTFbNasENgtm6SO3hC3,stroop,107,-3.0180675561455654,-0.2289329186817771,0.017697963704847237,0.0008326965653715788,0.15579999570099842,0.10904941824247721,1324.380769228706,1109.6925925932549,-214.6881766354511,0.9615384615384616,1.0,0.038461538461538436,1209.6457943933033,0.9719626168224299
GEwkBw3YHaNp3TCh9YS9PKVfavz1,stroop,108,-0.7082464012343007,-0.101301292280976,0.2968601993145317,-0.0003953623519772881,-0.1286890791016107,0.18439601737817704,752.8962963002699,679.4148148165809,-73.48148148368898,1.0,0.9629629629629629,-0.03703703703703709,718.6425925940275,0.9907407407407407
HSggdq91WiQp16bOj7V3dABkcgk2,stroop,108,-2.0645598139979513,-0.29160755517976783,0.0021982566706640547,0.0,,,801.9888888862398,632.6777777804268,-169.31111110581298,1.0,1.0,0.0,719.6083333271521,1.0
HbydnnT1hUP3WagAy2TJAc6GqVs2,stroop,108,-1.238757418989039,-0.17640052458614577,0.06781630820512982,0.0,,,1056.2851851869511,973.2481481410839,-83.03703704586724,1.0,1.0,0.0,955.1694444440029,1.0
HyQM2xKwwuVfqidmRYF6TiRk90C2,stroop,108,-1.2556589213589635,-0.19312982257290792,0.04521967370070207,0.0,,,747.7444444442236,627.3111111135395,-120.43333333068415,1.0,1.0,0.0,650.8694444456034,1.0
IaTJhUGICmO9xcL3605RW8QHneN2,stroop,108,-2.972161726975443,-0.31244379851513254,0.0009945919654262686,0.0007621442929682664,0.17624124079995176,0.06806894770740324,914.2740740742948,657.2074074093942,-257.0666666649006,0.9259259259259259,1.0,0.07407407407407407,739.4203703709775,0.9814814814814815
JntnHLHjYhc0xJJQALM3h9R5Ozv1,stroop,108,0.07033829700916393,0.008171575601202982,0.9331083218847505,-0.00015242885859365326,-0.0352482481599904,0.7172319722985141,855.2555555502573,876.3814814929609,21.12592594270359,1.0,1.0,0.0,784.2833333291389,0.9814814814814815
Jp6aXC9KLjcFZBaQdZl4i9dUscl1,stroop,108,0.5557518078284814,0.07814441330293112,0.42146563155389394,0.0,,,708.4407407310274,773.9777777768948,65.53703704586735,1.0,1.0,0.0,738.6203703698185,1.0
K26uNuY0VNPjJNF26wEx3bFg0kr2,stroop,108,-2.617888955576186,-0.389023225839592,3.169445777687908e-05,0.0004429963702878048,0.14419378742710617,0.1365238703012801,896.6148148147838,654.8592592592316,-241.75555555555218,0.9629629629629629,1.0,0.03703703703703709,759.0027777777717,0.9907407407407407
K7ykiXe6CqQUKpEzs2nYrMTVuDA2,stroop,108,-1.6469985805062968,-0.3020176751008182,0.0014898006690702956,0.0,,,797.1851851851852,664.629629629634,-132.55555555555122,1.0,1.0,0.0,735.6574074074128,1.0
LSLmd8jENtONZFVkIpRDX665Bu73,stroop,108,1.6669577096913115,0.17131441088155971,0.07626758444418309,0.0,,,897.5148148448379,1095.814814788324,198.299999943486,1.0,1.0,0.0,970.1472222231052,1.0
Lhv9P8ZrkDSIB7BGwooAqfu8SGF3,stroop,108,-1.3432283479277902,-0.2853634141484064,0.0027572330345294036,0.0,,,749.8592592588177,637.5481481507973,-112.31111110802044,1.0,1.0,0.0,701.2546296274221,1.0
LliUMEIsrCVZ88YFQfevan2Og4z1,stroop,108,-2.5559528232681767,-0.387007429501687,3.5107794086233504e-05,0.00016195566225575656,0.037451263669989764,0.7003773430644189,706.7666666666477,527.0629629629526,-179.70370370369506,1.0,1.0,0.0,581.8999999999824,0.9814814814814815
M4Km1Q2P2oPliChDQkwl6k20FUI3,stroop,108,0.07718473429887339,0.01399856715044997,0.8856650278815497,0.00011908504577629159,0.038761770813738196,0.6904189754597965,742.1037037460892,765.6037037460892,23.5,1.0,1.0,0.0,740.9194444727015,0.9907407407407407
MMSYeiMQi3gMr4PrXQcpXzFiegj2,stroop,108,-0.4789019410117103,-0.04312474454495785,0.6576523075672074,-0.00024293349338363486,-0.07907401246002588,0.4159463902525212,1160.4666667161164,1101.814814823645,-58.65185189247131,1.0,1.0,0.0,1085.9185185366207,0.9907407407407407
O61Eik2zvrSQLMNpFbTNEgjWwMr2,stroop,108,-0.7357364695458551,-0.08763710000488303,0.36711496140874644,-5.2397420141568285e-05,-0.017055179158044796,0.8609280430093188,902.7666666665011,807.8481481491967,-94.91851851730439,1.0,1.0,0.0,823.9101851855715,0.9907407407407407
OExlWyngGfPrScDYjaRcv5PIAet1,stroop,108,-2.3312579193341874,-0.3121929788995331,0.0010044801390397345,0.0,,,901.9925925952417,673.6111110978657,-228.38148149737606,1.0,1.0,0.0,755.9194444428991,1.0
ORuVuFPU5idz3fMoXTGsbwToW2j2,stroop,108,0.1420065349898231,0.015844604509717482,0.8707104510607598,-0.0003382015300046683,-0.11008342911101644,0.25672769814049945,756.5407407548693,827.4481481269554,70.90740737208614,1.0,0.9629629629629629,-0.03703703703703709,790.3518518650973,0.9907407407407407
ORvIk1xRWIQmKuLVe6GXNouvAXx2,stroop,108,0.6951718158753134,0.0593215584923047,0.5419601234942075,-0.0002858041098630999,-0.04718023227160918,0.6277641870910655,995.0666666693157,1061.8185185282318,66.7518518589161,0.9629629629629629,0.9259259259259259,-0.03703703703703698,972.7296296324995,0.9629629629629629
P9bS6GGJcIXivbMWo4ibJ5jgUPG2,stroop,108,-1.3885087694621792,-0.10439638378201813,0.2822691073833157,-8.620154573051554e-20,-1.423005761423641e-17,0.9999999999999999,1023.1296296296297,929.2666666640175,-93.86296296561216,0.9629629629629629,0.9629629629629629,0.0,946.1148148134903,0.9629629629629629
PLreonkqaMeFc0UqxKUelH44UQu1,stroop,108,-1.4423866548752917,-0.21211258946496292,0.027536296123828637,-0.0009764973753655911,-0.18524823281977063,0.05493341983676527,752.4851851860682,569.1148148140421,-183.37037037202606,1.0,0.9259259259259259,-0.07407407407407407,644.5259259265882,0.9722222222222222
PkpTH7pWpEOG9A86xSloOSozwTk2,stroop,106,-1.8544020957465348,-0.16552698329740678,0.0899395449404736,0.0,,,1406.3653846062148,1293.318518532647,-113.0468660735678,1.0,1.0,0.0,1378.1226415049355,1.0
QG6VXg7od2fHJ1SF9ZzYBqUa1FY2,stroop,108,0.38110358493920626,0.04506649913879553,0.643270843687717,-0.0003953623519772881,-0.1286890791016107,0.18439601737817704,719.3370370366783,770.1814814814263,50.84444444474798,1.0,0.9629629629629629,-0.03703703703703709,728.9574074074626,0.9907407407407407
QbOEVCaZLUMOgltUdXm58oZOALv2,stroop,108,-0.2707065077292027,-0.02827126449281912,0.7714774207303324,-0.00038583554831518477,-0.12558813743651165,0.1952865844606819,1127.3370370357125,1138.9777777791023,11.64074074338987,1.0,0.9629629629629629,-0.03703703703703709,1074.1935185199534,0.9907407407407407
Qg9GDwQ9hBNkDLt50CNLd4NqRlX2,stroop,108,0.5582968929754346,0.0772525962067771,0.4268001348460043,0.0,,,1125.2444444497426,1185.9703703544758,60.72592590473323,1.0,1.0,0.0,1182.3842592592594,1.0
QreA2rLiUhV3YHeMfuHMPdGbpJ53,stroop,108,-0.4645050343869609,-0.042703263494530554,0.6607907811258471,0.00045252317394990806,0.08584674203843015,0.37702200936701447,1077.448148144616,1151.8333333686546,74.38518522403865,0.9629629629629629,1.0,0.03703703703703709,1086.3203703827328,0.9722222222222222
Qv0jhW3sqicqQvd7LfReAsI7nD73,stroop,108,-2.1463955338157334,-0.3611737844359724,0.0001229243221869992,0.0,,,723.2370370350502,547.8629629634045,-175.37407407164574,1.0,1.0,0.0,662.2351851841366,1.0
Rc706mP0TSeIoIpMYH1SpRXjOxA2,stroop,108,1.4453199576337599,0.1615373283517709,0.09487995145552368,-0.0005525546124019931,-0.1277748995799653,0.18755951068958118,963.8740741235239,1068.4185185255828,104.54444440205896,1.0,0.9629629629629629,-0.03703703703703709,976.3685185114542,0.9814814814814815
Rmd4rr2vGjOoLvdfYd4EdYyxK3m1,stroop,108,-1.5955948058022085,-0.21423568221493322,0.02598653767036086,0.0,,,1004.7148148130487,873.6703703844988,-131.04444442854992,1.0,1.0,0.0,934.600000001766,1.0
Ru3Qf6pXZua1DfNkQdhbor6iJ403,stroop,108,-4.590710890089542,-0.38642079615806735,3.616398761448429e-05,-0.0005858984252193547,-0.08692745932708516,0.3710225085971163,1184.0962962963126,855.2259259259207,-328.8703703703919,0.9629629629629629,0.9259259259259259,-0.03703703703703698,1019.9231481481402,0.9537037037037037
SOhR7IO689NQCPQu56SjATO8FR92,stroop,108,1.2747916011701728,0.12485869101473199,0.1979146133005881,-0.0007716710966303695,-0.1050255085208799,0.2793629036704198,920.307407407366,998.1703703703911,77.8629629630251,1.0,0.9259259259259259,-0.07407407407407407,970.4601851852128,0.9444444444444444
SPCT9D90pRa1ihXS5jEw6vCmquI3,stroop,108,0.33081015937482233,0.04750808910380005,0.6253732057495107,0.0006144788362056646,0.11657083918902619,0.22957897935362204,685.9555555582047,660.6592592597008,-25.296296298503876,0.9629629629629629,1.0,0.03703703703703709,684.434259262074,0.9722222222222222
SdDjNMBD2ZMTEwUphkohi2cZwUx1,stroop,108,0.63208675588036,0.10597542294507925,0.2750129563568764,0.0,,,703.6703705257839,759.3481487698025,55.677778244018555,1.0,1.0,0.0,716.2564816828127,1.0
SpSfX0ZcfcPLdlOENlfdfvEPwru2,stroop,108,-3.927234273628787,-0.5439988434984873,1.1669457931970732e-09,0.0004239427629635981,0.13799190409690804,0.15439146093224676,1021.5185185185056,702.5185185185185,-318.99999999998715,0.9629629629629629,1.0,0.03703703703703709,853.6296296296242,0.9907407407407407
ToTCRJ4EX9OL6UlJqmDkaEbggWF2,stroop,108,-3.3771766364870848,-0.40369329871383336,1.4752488362872854e-05,0.0,,,1039.37777777844,769.6666666677704,-269.71111111066966,1.0,1.0,0.0,903.2407407401888,1.0
Ub7nV8F55kPruh35ZpUcKoBUyn63,stroop,108,-1.3823706498191326,-0.12492057860180678,0.19769066131653795,0.0003572551373288748,0.11628531244121464,0.23072976320860084,1004.6999999991169,887.2037037037037,-117.49629629541323,0.9629629629629629,1.0,0.03703703703703709,1038.64259259182,0.9907407407407407
UbwuSMtBsHdW3Ji41opk3GInMqi2,stroop,108,-0.6867853706426281,-0.11877105438790586,0.22084616856067757,-0.00030009431535625504,-0.09767966245062025,0.31455403317526487,800.9814814815504,750.1370370368714,-50.84444444467897,1.0,0.9629629629629629,-0.03703703703703709,750.651851851838,0.9907407407407407
VwTymW8T68MfpnJvZ2X97ILqDWS2,stroop,108,1.0627992606728482,0.09780967262539388,0.31390726693986554,0.000933626758886126,0.1541220920872566,0.11125503597843024,957.2555555568802,1106.5740740718666,149.3185185149864,0.9259259259259259,1.0,0.07407407407407407,971.4675925931444,0.9629629629629629
WKzqsLX1lNVSdbGgYTTVGtFwsrF3,stroop,108,1.3810435660732239,0.13225274549003024,0.17243558831034164,0.0,,,970.6296296296254,1141.851851851856,171.2222222222307,1.0,1.0,0.0,1005.870370370365,1.0
WbOfW9KmUkPQK8o5hlHJnJFdpp92,stroop,106,-2.5241756304066634,-0.1742019702773452,0.07410974146785783,-0.00018137390734816223,-0.04078917508290304,0.6780366472841108,1400.2730769234208,1170.237037035602,-230.0360398878188,1.0,0.9629629629629629,-0.03703703703703709,1175.771698112617,0.9811320754716981
WcTsIpSoEhYeIBSNjAbbdaNSBya2,stroop,108,1.0475449427109544,0.12405751026316138,0.2008303680187796,0.0,,,1023.9444444444445,1124.9111111119942,100.9666666675497,1.0,1.0,0.0,1054.2305555561627,1.0
WeHQDy9BWldTlaQDVVlsJNCqwxA2,stroop,108,-1.9835948440941182,-0.20020357187846197,0.03776018489988191,0.0,,,1000.2222222222222,829.5925925925667,-170.62962962965548,1.0,1.0,0.0,906.0925925925904,1.0
Wfo71fsX1VVfPZnzhT7HEYBTwnq1,stroop,108,-0.9306605882306764,-0.1530189401944665,0.1138685440955806,0.0,,,794.5666666384096,723.0555555555555,-71.51111108285409,1.0,1.0,0.0,773.630555541427,1.0
WnC6Uscb5VMIr43GASKiUCO3AYH2,stroop,108,-1.754284679972016,-0.30019175230769496,0.0015966523140862699,0.0,,,712.2407407407408,627.6666666677704,-84.57407407297035,1.0,1.0,0.0,652.9092592591488,1.0
WqoZv41KTtTCuPKBPyClregrKAi1,stroop,108,-0.29735535930377555,-0.030046362231451917,0.7575594391092032,0.0,,,921.6666666666969,935.7407407407235,14.074074074026612,1.0,1.0,0.0,923.8055555555652,1.0
XehZHBpwr5MYzUXkj0FAYCsFG922,stroop,108,-1.139540045908419,-0.17471040945341287,0.07053609588285108,-0.00016671906408680825,-0.03162774706679005,0.745225073534372,794.8333333325055,681.18888888922,-113.64444444328547,1.0,1.0,0.0,710.7944444444169,0.9722222222222222
YEU5ox3jteVINfdSTg5ymqYcS9o2,stroop,108,-1.0459139539503788,-0.215152507197047,0.02534064193037709,-0.000366781940990978,-0.06958104354693817,0.4742623756835349,669.3000000075058,576.4370370396862,-92.86296296781961,1.0,0.9629629629629629,-0.03703703703703709,619.6064814831371,0.9722222222222222
Yco8O7tmHlbsUBfKW2ywcZByGO32,stroop,108,0.4720140615734769,0.04853307052345712,0.617923373526392,-0.0004906303885983213,-0.1596984957526012,0.09875135350198587,935.477777775791,985.2851851836399,49.80740740784893,1.0,0.9629629629629629,-0.03703703703703709,938.5444444426232,0.9907407407407407
Z3GikGkUkjMOa6UK1xdIDvuGRHp2,stroop,108,-1.188983680897186,-0.18780057713282686,0.05161566281329941,0.0002762773062009965,0.06388744978998255,0.5112557030434317,819.1518518659803,773.0333333280352,-46.11851853794519,0.9629629629629629,1.0,0.03703703703703709,788.6361111203829,0.9814814814814815
aM2995jJmJWvr6cneaGH58HauIg2,stroop,104,2.1219556173500664,0.1473315665615964,0.13557042260955696,9.06860130161101e-05,0.02789829578715491,0.7786152899072101,898.4884615334181,1110.084615388742,211.5961538553238,1.0,1.0,0.0,1028.8115384590167,0.9903846153846154
afdTz6deeYWf1qKNdUpKAYKN3hz1,stroop,108,1.0356640658631502,0.08977464859943121,0.3554983838751402,-0.00031438452084940974,-0.05189825549877007,0.5937385165235765,1017.8703703709223,1109.8111111124356,91.94074074151331,0.9629629629629629,0.9629629629629629,0.0,953.9787037049731,0.9629629629629629
aj2Ivskb3BgyvBNTLIKlSZG0Sq22,stroop,108,-1.9241671190871756,-0.25887332977206295,0.006824997036371134,0.0,,,886.0259259232769,738.7259259223938,-147.30000000088307,1.0,1.0,0.0,812.7287036997301,1.0
azdL1gX79EVd9iepyCAVQrqIaQF3,stroop,108,0.09892204216546517,0.016089726756436756,0.8687280432963963,0.00020006287690416984,0.046263325709987355,0.6344713834889143,743.940740740789,769.1666666666839,25.2259259258949,1.0,1.0,0.0,743.4101851851964,0.9814814814814815
bXpFswkI7TfIfL6G4FqWrbaxTGx2,stroop,108,-1.9433107548088766,-0.2200984962443894,0.02208754894116286,-0.0005049205940914764,-0.08335174367984285,0.3910962577208461,794.6370370370526,650.9925925925857,-143.6444444444669,1.0,1.0,0.0,679.5648148148181,0.9629629629629629
biQ16yPcCKSkJQhSxUKcDc8gm8I2,stroop,108,-0.18004849140542772,-0.023704972567704773,0.8076049549226748,0.0,,,1119.2555555767483,1087.711111139368,-31.544444437380207,1.0,1.0,0.0,1120.443518517194,1.0
btpcu1rB1JeSTo2upeHGPdv8kYG3,stroop,108,-2.7246386959283,-0.23433065229925276,0.014647160401393734,0.0,,,1080.1925925855282,898.333333324503,-181.85925926102527,1.0,1.0,0.0,988.93796295921,1.0
c0hRe9PCPPZs3HWFqhIQargNlp52,stroop,108,-0.7711461705308467,-0.07837728012987195,0.42007908765584556,-0.000452523173949908,-0.14729472909220495,0.1282020993612141,952.3888888535677,917.2629628711277,-35.12592598243998,1.0,0.9629629629629629,-0.03703703703703709,949.8203703650722,0.9907407407407407
cC0BEsQjfrcuCyoaOas9zJT0MNs2,stroop,108,-0.6555360255022028,-0.07644209940541201,0.4316816888598046,0.0,,,991.9555555272985,933.0592592380665,-58.896296289232055,1.0,1.0,0.0,989.3472222133919,1.0
cEIs6U87xfbSL5eFTXDK77MmvNf1,stroop,108,-1.8976954653591833,-0.18060383516968476,0.061419622166918056,0.0,,,1014.6592592133416,828.5518518907053,-186.10740732263628,1.0,1.0,0.0,881.7888888782925,1.0
cUugYJoOmOSFc0Mh5JD0ZXJrYN52,stroop,108,-3.3714391189717166,-0.41625170246696525,7.444844002511165e-06,-0.00018100926957996316,-0.02988081377201913,0.7588542580561466,917.9518518519623,662.5555555550037,-255.39629629695855,0.9629629629629629,0.9259259259259259,-0.03703703703703698,697.0787037035657,0.9629629629629629
cec6NLR2ZLVVw6h0TEKSNIH11v02,stroop,108,-0.1775948631465369,-0.024771280022182048,0.7991292102325023,0.0,,,850.0740740740223,831.5222222222602,-18.55185185176208,1.0,1.0,0.0,855.2833333333429,1.0
d9rwc0NXArcNlJvFsgKhQqkGxJq2,stroop,108,-1.1470624100557547,-0.14804836363040222,0.12623959698724163,0.0,,,879.6518518527349,786.1370370365955,-93.51481481613939,1.0,1.0,0.0,847.4314814822542,1.0
dnkEqKuvjoQzAQm5yXlrAOp9ZlD3,stroop,108,-2.8481094057825906,-0.35063115265520584,0.00019898815968807148,0.0,,,1009.0925925925926,719.9148148165809,-289.1777777760117,1.0,1.0,0.0,811.6148148134903,1.0
e7NIVznoeNMC7bBejXnMVvFNPfx1,stroop,108,-2.0981322702482874,-0.19821709765435513,0.03974260312517685,0.00046204997761201144,0.15039567075730428,0.12027471245003425,920.100000001766,808.4481481468237,-111.65185185494238,0.9629629629629629,1.0,0.03703703703703709,894.534259258045,0.9907407407407407
fEq0OghbLpfD1jigl1Mbz96aMbg2,stroop,108,-1.8343579410670228,-0.19447350926690696,0.04371539165241827,-9.050463478998162e-05,-0.013427818920444043,0.8902969950545727,810.0777777786608,607.2407407407408,-202.83703703792003,0.9629629629629629,0.9629629629629629,0.0,681.1453703713638,0.9537037037037037
foaW7wtvY3XLNdguFUK7OvOefP93,stroop,108,0.047217696990426154,0.00580099317607648,0.9524864128157926,0.0,,,903.4962962962928,892.0518518518355,-11.444444444457304,1.0,1.0,0.0,846.6481481481444,1.0
g2G9l3no7RbeRA9a1W3JnfegTnh2,stroop,105,-4.576357039299442,-0.27180707121738645,0.005033779954201027,0.0004665146174580136,0.08487363862989585,0.38932616217326454,1278.123076938666,895.8148148192299,-382.308262119436,0.9230769230769231,0.9629629629629629,0.03988603988603978,1121.0819047723498,0.9714285714285714
h12a1QYNpYbl3T0Gj1PxUz3EnEx2,stroop,108,-2.1018177141387735,-0.2621587778701008,0.006128187307356296,0.00036201853915992637,0.059761627544038264,0.5389617572593735,995.851851851854,819.5185185185185,-176.33333333333553,0.9259259259259259,1.0,0.07407407407407407,890.4166666666672,0.9629629629629629
h5RYP03wJuVN0xo7qAR8CKFxLaj1,stroop,108,-0.5649647031700592,-0.05396710625295979,0.5790854729704755,-0.0004620499776120114,-0.15039567075730406,0.12027471245003468,1065.481481479274,1046.7740740753986,-18.707407403875322,1.0,0.9629629629629629,-0.03703703703703709,1024.617592594138,0.9907407407407407
hrRr560eFBNwJ0CcUjCqtSD8TdP2,stroop,108,-1.3735164384997047,-0.2613809264061016,0.0062871932554984305,0.0,,,729.540740740658,628.0037037036209,-101.53703703703707,1.0,1.0,0.0,678.9685185183944,1.0
i1tBstVkNiVP0qro7TgGD08IGGa2,stroop,107,1.1414663295704375,0.10644038892782712,0.2751852745700752,0.0003036893356061052,0.09748427672955998,0.31783207976432376,1162.9192307637288,1251.4222222257542,88.50299146202542,0.9615384615384616,1.0,0.038461538461538436,1186.5299065358172,0.9906542056074766
iKVZi0Oo96UrMBhPQMHWFcf55uA3,stroop,106,-3.117117162505953,-0.22744997436057227,0.01903747974246833,-0.0009874801622288838,-0.22207439767358336,0.022141346424082962,1399.0000000000045,1170.3703703703748,-228.6296296296298,1.0,0.9259259259259259,-0.07407407407407407,1235.2547169811398,0.9811320754716981
iWsc4pghIEWOQUZKuQJMfe516UI3,stroop,108,-0.8565877848690803,-0.1294173122573411,0.18190398488778042,9.52680366210334e-06,0.0022030155099994034,0.9819469846495259,699.3740740749571,656.8111111013977,-42.562962973559365,0.9629629629629629,0.9629629629629629,0.0,642.1046296258768,0.9814814814814815
iZScIvzhvAdvlsBXU5D8IHwvG6Q2,stroop,107,-2.6801259822612282,-0.18437118713361592,0.05729132604598366,9.796430180842105e-05,0.0314465408805032,0.7477978387442865,1704.253846163933,1468.6666666622516,-235.58717950168148,1.0,1.0,0.0,1395.9719626179365,0.9906542056074766
idP8RVfm74N86O0dszLXANIpjXv2,stroop,108,0.12249278333651831,0.013745813861127672,0.8877158081481176,1.9053607324206637e-05,0.004406031019998792,0.9639030787772255,953.5888888946286,940.640740736767,-12.94814815786151,1.0,1.0,0.0,934.9722222222222,0.9814814814814815
iv9ew8Ci8lOzvXFiJw1acJfuRAl2,stroop,107,-2.300721017261523,-0.16105684222383934,0.0974679359182387,-0.0004408393581378947,-0.14150943396226423,0.14596866832004698,1198.2692307692264,1053.1111111110938,-145.1581196581326,1.0,0.9629629629629629,-0.03703703703703709,1019.3644859812997,0.9906542056074766
jpklrtZKDdb3UbsoQ7Ho5KuR5yb2,stroop,107,1.5521219069196446,0.1530043587073787,0.11563106408415581,-0.0004506357883187368,-0.14465408805031454,0.1371286413721408,1069.2999999958736,1204.7037037103264,135.40370371445283,1.0,0.9629629629629629,-0.03703703703703709,1111.371962618605,0.9906542056074766
jzdk8E3tVXTXIozlfK5oeEb7wWp2,stroop,108,-4.653830251376235,-0.4925330712079429,6.146643400546884e-08,0.0,,,1120.188888889772,749.4592592583763,-370.7296296313957,1.0,1.0,0.0,892.0296296278635,1.0
k8j7IpYfd8dYB0L1qyLCcrwoFOy1,stroop,108,-2.263971536456405,-0.2725234962238169,0.004325279348262856,0.0,,,933.1592593722874,688.6296295236658,-244.52962984862154,1.0,1.0,0.0,815.4759259047331,1.0
kI0YdycDU0X5hcoEPjEON3Ionyd2,stroop,108,-2.83501862494352,-0.256738065471188,0.007314661915712917,0.0,,,1039.0962963015945,802.9444444488596,-236.15185185273492,1.0,1.0,0.0,893.575925928575,1.0
kR2rCtaPyPaj7YMizKUDn5xL2qx1,stroop,108,-1.889063229395759,-0.2101655183062519,0.02902596855930382,-0.0005001571922604246,-0.09488324120037026,0.32867434480427427,990.5148148148028,831.925925925926,-158.5888888888768,1.0,0.9629629629629629,-0.03703703703703709,876.6499999999845,0.9722222222222222
kgSRatooJJfDaMZ2yIURqb8aJuE3,stroop,108,0.9051144644994237,0.06354836453001513,0.5135047745976737,-0.000452523173949908,-0.14729472909220495,0.1282020993612141,945.8814814824749,989.9259259237183,44.0444444412434,1.0,0.9629629629629629,-0.03703703703703709,967.1305555556384,0.9907407407407407
kxerHPSL3bQjD74HhiebYf3blPr1,stroop,108,-0.03807863423714968,-0.0061078818468664,0.949975979461124,0.00019529947507311823,0.06356930413453066,0.5133657402672109,723.6666666666495,755.2592592592592,31.592592592609776,1.0,1.0,0.0,750.3518518518475,0.9907407407407407
lHDkoPQu5reNCO45npeYSS9eLQl1,stroop,108,0.06954471437188799,0.010217354240050066,0.9164162468832238,-0.00028580410986309986,-0.06609046529998198,0.4967680844610556,799.7259259047331,798.0185185185185,-1.7074073862146406,1.0,1.0,0.0,777.203703686043,0.9814814814814815
lpzDdvuMkKWkPxu6xeclmdctEp42,stroop,108,0.38416407044186207,0.05870311971829795,0.5461876108705632,0.0,,,857.8444444691694,878.2777777777778,20.43333330860844,1.0,1.0,0.0,837.7361111243566,1.0
m69r9GQTk2b51mvxrFLt4fZeJi52,stroop,108,0.8939190412226091,0.12112625310642956,0.21176127390648586,-0.00020006287690416995,-0.0462633257099874,0.634471383488914,707.9259259259152,793.3333333333334,85.40740740741819,1.0,1.0,0.0,758.9814814814794,0.9814814814814815
mUZzgdWKnPb2txOkJg9FHgqX5792,stroop,108,2.6204483312846,0.2060780110502943,0.03237670400352337,0.0,,,994.6740740890856,1209.414814820996,214.74074073191048,1.0,1.0,0.0,1091.7611111082413,1.0
mg2WZiRBn4NQDKiMK43Y8dBqyG53,stroop,108,-2.958925186010944,-0.3982885148846971,1.963602973478436e-05,-0.00011908504577629159,-0.038761770813738175,0.6904189754597965,902.5925925925904,645.8148148148105,-256.77777777778,1.0,1.0,0.0,792.194444444446,0.9907407407407407
mweMgSlGM2VxThhwnupYxYzUbR23,stroop,108,-0.5063462802597178,-0.07582900416687109,0.435395403829811,0.0,,,764.4666666666874,722.4259259259173,-42.04074074077005,1.0,1.0,0.0,721.9064814814935,1.0
mwsliuPsLFhRFjtjQwYkqcCRDvi2,stroop,108,-1.621388149787069,-0.2738672670899107,0.004130212889269001,0.0003000943153562549,0.0976796624506203,0.31455403317526465,780.9037036719145,676.4259259435865,-104.47777772832796,0.9629629629629629,1.0,0.03703703703703709,720.3138888897719,0.9907407407407407
nT1qJOiMyDdJ9ui4el195A8Hsgs1,stroop,108,-1.9139362847011068,-0.2482864899180848,0.009571156971377929,0.0,,,1043.7592592592594,921.1444444568069,-122.61481480245243,1.0,1.0,0.0,990.5009259283543,1.0
ohl9pXqpeSMfepC3w9h0tW5SbJw1,stroop,108,0.2775691407774696,0.022759881005983158,0.8151358828342398,0.0,,,1280.9740740740758,1341.2222222222179,60.248148148142036,1.0,1.0,0.0,1311.4296296296297,1.0
pFlYc8DBmSXkvMIRgXFxvo3JB6j1,stroop,108,-3.067268760658094,-0.4786103851128395,1.6125253293352382e-07,0.0,,,937.4074074073988,718.5555555555469,-218.85185185185185,1.0,1.0,0.0,789.4629629629554,1.0
pRQimOpZtsekBI2I1kbnD3pycmo1,stroop,108,-0.9877561516712348,-0.10559237631546853,0.2767615273915059,0.0,,,898.0148148095167,772.940740748688,-125.0740740608287,1.0,1.0,0.0,800.1296296285259,1.0
pcbRW89vVJcviD87V3uxyG4I9st2,stroop,108,-3.2296431259346674,-0.5464187656691708,9.52365237287223e-10,0.00036678194099097806,0.11938625410631368,0.21844696022965052,822.796296296279,547.1259259259311,-275.6703703703479,0.9629629629629629,1.0,0.03703703703703709,649.2398148148021,0.9907407407407407
q0Atnpm0jZS5swcVmq0EMalQUKw1,stroop,108,-1.8387445578133848,-0.30921295321056697,0.0011290255715479965,0.00018577267141101493,0.0604683624694316,0.5341637046431076,841.1111111111125,689.9629629629651,-151.14814814814736,1.0,1.0,0.0,751.1944444444458,0.9907407407407407
qZZiI6GzgxOrpQDGu42ZA0xsGEJ2,stroop,107,-2.4395795371872087,-0.28388071018901295,0.0030444895402432673,-0.00022531789415936843,-0.07232704402515733,0.4590939238974139,965.438461535252,773.318518517194,-192.11994301805805,1.0,1.0,0.0,882.0299065408306,0.9906542056074766
qnR5PLX1v3fPi6SwTJMwGcadwyD3,stroop,107,-4.741679891880575,-0.4413214189509451,1.954692652417954e-06,-5.877858108505251e-05,-0.013405018437777699,0.8909991221810998,1057.8923076918493,683.718518515428,-374.17378917642134,0.9615384615384616,0.9629629629629629,0.0014245014245013454,807.0672897186791,0.9813084112149533
qsRKc69hK6e8Uu6vr2pBO8NbpMt2,stroop,108,-2.6781336038944876,-0.45548043241126307,7.305187732905652e-07,0.0009431535625482296,0.15569476649631028,0.10761015430712179,861.996296296295,616.274074074075,-245.72222222222,0.8888888888888888,1.0,0.11111111111111116,702.4638888888838,0.9629629629629629
rFV2EUbp64f5ORSh7DqwmCQmeqT2,stroop,108,-4.427075176035636,-0.39341220810739413,2.5308180276224188e-05,-0.00010955824211418827,-0.03566082914863913,0.7140647975080494,1169.077777777557,829.1851851840814,-339.89259259347557,1.0,1.0,0.0,962.659259258045,0.9907407407407407
rNe3cRPepZUXbJhmmfQZiGsVzX22,stroop,108,-0.9605071117723915,-0.10616523465936714,0.27414924490121834,0.0,,,1048.8555555553348,980.803703704366,-68.05185185096889,1.0,1.0,0.0,967.1398148161394,1.0
rUuJv5gl7dWVo7UPQWMx4bohxhK2,stroop,106,-0.22327127994546198,-0.01486461632913736,0.879790859959594,-0.00017633574325515784,-0.05581455721859475,0.5698477276816641,1386.280769230762,1346.933333333336,-39.34743589742607,1.0,1.0,0.0,1305.7037735849021,0.9905660377358491
ric6cNjG25XmZJCiKZDOxzeezao1,stroop,108,-0.5748740080216668,-0.1141247447971436,0.23956875798310318,0.00027151390436994485,0.08837683745532313,0.3630687146852415,784.0407407407442,714.0407407407356,-70.00000000000864,0.9629629629629629,1.0,0.03703703703703709,748.2870370370371,0.9907407407407407
roaf78tUWxWSEjAUcUu8O7mrQbl1,stroop,108,0.5515500111949992,0.08018295124532133,0.40941770571241454,0.0,,,752.1518518394894,840.7074074127056,88.55555557321622,1.0,1.0,0.0,800.050925925926,1.0
sqfXvh6GJLaYAqr3RvHrixP8IOx1,stroop,108,-0.2107505214632596,-0.022418251466287648,0.817862332607237,-0.00011432164394523994,-0.026436186119992804,0.7859422641153115,881.8000000052982,864.8962963068926,-16.903703698405593,1.0,0.9629629629629629,-0.03703703703703709,890.7324074131471,0.9814814814814815
ssPK6ISW0HerTGke9hznqJ2LpKu1,stroop,108,-1.4793839968615798,-0.16303730725755175,0.09181157827219673,0.0,,,819.7740741305881,729.8851852770205,-89.88888885356766,1.0,1.0,0.0,834.9277778113329,1.0
tB4wPBbnWJUXeOC3Zxjph0Esgjf1,stroop,106,-2.8361659570248037,-0.197357500981001,0.04257879484961516,0.00012595410232511272,0.03986754087042481,0.6849218713214357,1416.9307692142634,1160.096296283934,-256.8344729303294,1.0,1.0,0.0,1330.337735841859,0.9905660377358491
tPxs1KmmX0ZKjHS9Nr63xoOPCRr2,stroop,108,-2.3546686089762168,-0.3366178066874666,0.0003679421128070195,0.0,,,974.2037036330612,813.3481481693409,-160.8555554637203,1.0,1.0,0.0,885.5870370070139,1.0
tv88wS5Nf6SjruozSmXJxQSmx6J3,stroop,108,0.29796269306525164,0.025911553064816836,0.7900913021235642,-0.00019053607324206654,-0.04406031019998797,0.6507070943670221,1270.0148148161393,1273.3518518540595,3.337037037920254,1.0,1.0,0.0,1242.2861111119942,0.9814814814814815
u64Uf920g5VD9Byq26LT2rs5o4t1,stroop,108,-1.3027422904666743,-0.22767731319302853,0.0177990479851171,0.0,,,813.0222222275204,716.596296299387,-96.42592592813344,1.0,1.0,0.0,741.643518521278,1.0
uM3kxG78g5ZtXtbAEzZyM4XFmaI3,stroop,108,-0.011878971442041532,-0.0013935590388102974,0.9885796481682854,0.0,,,974.4037036995093,996.8592592588177,22.455555559308436,1.0,1.0,0.0,955.4555555543413,1.0
v8nNKiWvPdcjiHXZci39OuFTY6M2,stroop,108,-0.2208379776630655,-0.024064163280855925,0.804747319876556,0.0,,,1245.1222222204563,1229.929629629409,-15.192592591047287,1.0,1.0,0.0,1175.4407407398578,1.0
wdppvL4tIkVlGjou6aYzzjlaZXB2,stroop,108,-1.3377785399172224,-0.11535092176831914,0.23452395196535464,-0.0009907875808587462,-0.1635581385415785,0.09076473458874978,865.4481481479274,780.7629629631562,-84.68518518477129,1.0,0.8888888888888888,-0.11111111111111116,796.6296296294917,0.9629629629629629
wkhxvE50megJGMA1EiROSZIJWNq1,stroop,108,0.5032829365402719,0.06080357620118047,0.5318953819215424,0.0,,,904.3296296292984,971.692592592703,67.36296296340458,1.0,1.0,0.0,868.8240740739361,1.0
xBGZhFOeypWnqzSQClkrwV9z2vF3,stroop,108,0.12557660979164595,0.011558497563715995,0.9054927110848856,0.0,,,1092.0851851851696,1086.1185185185168,-5.966666666652827,1.0,1.0,0.0,1035.2907407407356,1.0
xHctBv4C2EU8rHYRouw0btT3GT02,stroop,107,-0.9548511922246524,-0.11886839285973144,0.22266547830645325,0.0005486000901271576,0.1026447030500695,0.29276473214682447,828.6576923076243,715.1407407407684,-113.51695156685594,0.9230769230769231,1.0,0.07692307692307687,747.9261682242694,0.9719626168224299
xyAILKfYP2M8GqAai11x6NT7IcP2,stroop,108,0.19893299799116115,0.018863215204657533,0.8463571949396599,0.0,,,939.559259259211,940.3925925926478,0.8333333334368263,1.0,1.0,0.0,981.3166666666511,1.0
y1EHXv8tUTa4BRS4fRio7bULYfA2,stroop,108,-2.324230948369619,-0.3216605989022096,0.0006873358924679732,0.0,,,949.525925901201,812.5185184831972,-137.00740741800382,1.0,1.0,0.0,859.0231481349027,1.0
yatBVTBMCSMp0wJluOCLzTFKMyP2,stroop,108,0.4246477464397931,0.059666988293228064,0.5396058798821309,0.0,,,1007.5555555550037,1042.148148148148,34.59259259314433,1.0,1.0,0.0,957.7037037034622,1.0
yfjd8LbAMrYeG54927d3GiKAyXI2,stroop,108,1.0359308163516845,0.08575077073781907,0.3775576207316452,-4.7634018310516465e-06,-0.0015504708325495221,0.9872938424986382,813.5370370370435,927.1074074074061,113.57037037036253,1.0,1.0,0.0,871.1657407407415,0.9907407407407407
zw1w9FipI9RjJsuhHse6UZavBxs2,stroop,108,-1.524512465822442,-0.1996766654773596,0.03827775772349699,0.0004096525574704431,0.09472966692997416,0.3294613628124079,799.7777777777562,662.5185185185142,-137.25925925924207,0.9629629629629629,1.0,0.03703703703703709,743.6203703703596,0.9814814814814815
zxG9mUnF7uRkaOKSoCPsiRZzr372,stroop,108,-0.21021844995322012,-0.024641694812046536,0.8001580194264277,-0.0002238798860594279,-0.07287212912982767,0.45355923647923735,1151.3000000185436,1079.5518518421386,-71.74814817640504,1.0,1.0,0.0,1077.042592589502,0.9907407407407407
