participant_id,prp_t2_cv_all,prp_t2_cv_short,prp_t2_cv_long,prp_t2_trials,stroop_post_error_slowing,stroop_post_error_rt,stroop_post_correct_rt,stroop_incong_slope,stroop_trials
1dpmVw8fpcc2IHs0s9WqdU8Yvi53,0.34890292159377817,0.2664911407884794,0.35994748533000315,120.0,3.031132079520262,950.5,947.4688679204797,-2.3350335281231156,108
2h5FgHUEvBS1twD5DqbTIRrMm1f2,0.49317779674470325,0.2680768428737908,0.6647415758359796,119.0,891.7132075496439,1648.0,756.2867924503561,-4.49362184628922,108
4ySuGdFDDmaAr6JUXbD4UIY6BQ13,0.5074659836737889,0.320319080258966,0.720652085833566,120.0,,,820.7523364485982,-1.6109873073519834,108
5zxa5CMLGQSSonWOXqXf0QNS3PH3,0.44997577643872655,0.3646832740400025,0.3360240176427384,120.0,89.35660373264886,724.7999999523163,635.4433962196674,-1.3769467601903402,108
62fAfeQc27bZelkPX7G54T3gvci2,0.33432625295576757,0.24088168222852438,0.3630681448808945,120.0,732.2447619047637,1743.5,1011.2552380952363,-0.24165179236920376,107
7cvQFrzIDEVAkFCcGAHZPUvJ2MF3,0.47490218711657495,0.30488395792280043,0.4612483486374184,120.0,,,1132.4915887774707,1.3272834243062477,108
80UJMJbCOMgs6YVpsMgXfYTzw6o2,0.37499534028132325,0.26781821302193787,0.29060298575936794,120.0,,,742.0355140188378,-1.6486157478313468,108
8cOQBMgQEYSlJ4CK60pFMmBVEBV2,0.36486357491545507,0.23321114354358377,0.41858763815542066,120.0,-398.78396263662376,729.8999996185303,1128.683962255154,-6.050708445402565,108
A9AEg0g6c2P1Bk72HLmnK3oWJ9B2,0.40085649658350136,0.23735548765379383,0.40294691058534043,120.0,,,854.054205607031,-6.061623003706996,108
AUKCfn4HzgVB7m6LNnh2gQb7G5s2,0.49009264431992644,0.3974450888317473,0.56877857059644,120.0,48.48679242493972,996.0,947.5132075750603,-1.1580085595901395,108
AsXBOflrszVNKoFqbN61bMJqS0k2,0.31588581627732787,0.1894291421840259,0.2881145855604248,120.0,642.945388354144,1387.625,744.679611645856,0.690672683550878,108
AyAnuCaltBbpEYbudoyNzTvXlcC2,0.4659879520163731,0.4035350626727523,0.5183373808866542,95.0,574.9252427338976,1563.7000000178814,988.7747572839838,-1.8856371948743875,108
CDEoAyvS8feXLKMKsaZah9agEhF3,0.42258172124917504,0.29182635140378776,0.3960308928951251,120.0,,,832.4383177570041,-0.6815783075799747,108
CGyTPhevTbSvVnZ8qSP0NtWuhgw1,0.4995695259250178,0.4202735377825508,0.42831961379892164,120.0,-226.23396212874718,826.1000001430511,1052.3339622717983,-2.5673800211790736,108
CtJe4bZZnYUBNrcPk00d3YQFSGp2,0.37849056328879727,0.27172278001485534,0.3952048548804321,120.0,,,791.4289719626247,-1.0640475180826108,108
DPvStUYSmohmXwFwaKRqHv89R3k1,0.4456861091207167,0.29323234286304267,0.4619982568900437,120.0,155.65128204761413,1141.6666666666667,986.0153846190526,1.369079393670106,108
DzB19GqCB7fyrlEPexogWkjFzEx2,0.5011591589865443,0.3551235725142886,0.6199379378587404,117.0,,,1237.1828571364993,-1.1921365544583744,106
EUhcW9kURScie1DwGPHqmNqotJB2,0.48616484191692877,0.3190319876218845,0.4712793142547848,116.0,637.1396227332782,1762.9000000953674,1125.7603773620892,-2.699767792303114,108
Fz7EUjZCLuUBxLDUVtN6djaBTy42,0.39470590765909475,0.3378271851932924,0.25788929877052097,120.0,,,978.9728971942563,-0.8283583826086603,108
GDZGRW51kbWtAdUIHCtEd8sAtqY2,0.4739901677924884,0.3088258760504568,0.5353513043528114,120.0,,,953.7345794517303,-3.014960589396682,108
GE4hogtdLdTFbNasENgtm6SO3hC3,0.4260377986076704,0.3835647391540604,0.20484891441854558,120.0,183.582200654502,1382.366666674614,1198.784466020112,-3.4385595741756485,107
HyQM2xKwwuVfqidmRYF6TiRk90C2,0.37458294133867553,0.3157132164905291,0.29322312580434406,120.0,,,647.6971962628799,-0.3153373405289247,108
K26uNuY0VNPjJNF26wEx3bFg0kr2,0.45342854111973796,0.37074998871114523,0.5370550483734101,118.0,109.47830188670196,860.8999999999069,751.4216981132049,-3.0642549255273224,108
K7ykiXe6CqQUKpEzs2nYrMTVuDA2,0.3735588516402001,0.23492986032324098,0.3097738872216305,120.0,,,731.6635514018745,-2.2614471452797003,108
LSLmd8jENtONZFVkIpRDX665Bu73,0.5785828551869587,0.5233390673105026,0.6005205460617445,117.0,,,969.4084112153989,2.6260910685790746,108
Lhv9P8ZrkDSIB7BGwooAqfu8SGF3,0.36836279063890504,0.21174383876371888,0.18438305772363112,120.0,,,694.4299065398278,-1.5721262345784006,108
LliUMEIsrCVZ88YFQfevan2Og4z1,0.4492119372001463,0.35858235189428883,0.4792944249874198,120.0,639.3914285713984,1206.1999999999534,566.8085714285551,-2.496636831410707,108
MMSYeiMQi3gMr4PrXQcpXzFiegj2,0.41834195537623486,0.30469860558235895,0.4474283857839576,118.0,805.6169811149814,1882.5,1076.8830188850186,-0.3108944847090156,108
ORvIk1xRWIQmKuLVe6GXNouvAXx2,0.5300142017585582,0.41030542269262027,0.49068848967612017,119.0,718.7516990694606,1665.1750000417233,946.4233009722626,2.421115669216327,108
QG6VXg7od2fHJ1SF9ZzYBqUa1FY2,0.500168913844754,0.35383626572755167,0.5166899656485284,120.0,880.4858490595559,1599.7000000029802,719.2141509434243,2.2847647904810717,108
Qg9GDwQ9hBNkDLt50CNLd4NqRlX2,0.29947448152455475,0.24400969042987958,0.3049078372600438,119.0,,,1176.2887850476202,0.9509153214571253,108
QreA2rLiUhV3YHeMfuHMPdGbpJ53,0.47397517095688035,0.3347699178073784,0.6356842917856702,120.0,349.5320513164386,1424.3666667143505,1074.8346153979119,2.33761537104897,108
Qv0jhW3sqicqQvd7LfReAsI7nD73,0.37218961799585243,0.28573669860919615,0.26727713682897997,120.0,,,657.2093457933341,-2.8382687400609488,108
Rc706mP0TSeIoIpMYH1SpRXjOxA2,0.41540263031194913,0.3012020349198341,0.4613601570254769,120.0,134.94811282967646,1107.8999996185305,972.951886788854,2.4383232623921804,108
WKzqsLX1lNVSdbGgYTTVGtFwsrF3,0.38561819167060435,0.27657184704237964,0.43859125446832503,120.0,,,1005.990654205602,4.002704633598698,108
WbOfW9KmUkPQK8o5hlHJnJFdpp92,0.41705892952212337,0.21198581688929735,0.5809634421540332,120.0,532.4499999976274,1699.0499999970198,1166.5999999993924,-7.349530910806137,106
WcTsIpSoEhYeIBSNjAbbdaNSBya2,0.465424336536096,0.35290442801450234,0.4778688604199554,120.0,,,1054.5747663556972,-0.46448113496624344,108
aj2Ivskb3BgyvBNTLIKlSZG0Sq22,0.4453366589143771,0.3812085158134297,0.3885923531730291,120.0,,,812.6457943882898,-2.923393819793222,108
azdL1gX79EVd9iepyCAVQrqIaQF3,0.39713258943320645,0.22998707919964054,0.46276914139675546,120.0,49.11238095217959,786.2999999998137,737.1876190476341,0.3505829110976119,108
cEIs6U87xfbSL5eFTXDK77MmvNf1,0.4403008513693709,0.33169261857988036,0.39631808692436704,119.0,,,870.1046728865008,1.0639794125563762,108
cUugYJoOmOSFc0Mh5JD0ZXJrYN52,0.4475179522658502,0.35961719896027056,0.42509979556347965,120.0,397.7429611655947,1075.2750000003725,677.5320388347778,-3.8237648473301706,108
dGL2zPQyEvdibcvxeTencpgoWbg2,,,,,75.62135922329196,881.0,805.378640776708,-2.0141914390863094,107
dnkEqKuvjoQzAQm5yXlrAOp9ZlD3,0.4701470164581787,0.33040092166377416,0.507739968466056,120.0,,,810.8018691573187,-2.2928789115660564,108
fEq0OghbLpfD1jigl1Mbz96aMbg2,0.5346817299212958,0.39623070508405583,0.5229433742081253,120.0,397.91450980659215,1055.2400000035764,657.3254901969842,-2.3114032628498165,108
h12a1QYNpYbl3T0Gj1PxUz3EnEx2,0.40877225995033695,0.2936698363869272,0.5113468043615192,120.0,306.330097087363,1183.9999999999854,877.6699029126224,-3.010427963467739,108
h5RYP03wJuVN0xo7qAR8CKFxLaj1,0.3943699382734139,0.35016347195911296,0.4187099317279671,120.0,261.9830188543167,1282.699999988079,1020.7169811337624,0.7308520621945926,108
i1tBstVkNiVP0qro7TgGD08IGGa2,0.46070034410249233,0.2902803395513238,0.6108517232918489,118.0,458.51714281354657,1636.7999999523165,1178.28285713877,0.7185289366251586,107
iKVZi0Oo96UrMBhPQMHWFcf55uA3,0.47298589421098297,0.31691507337302127,0.4855018835475769,120.0,30.927184466011568,1252.5,1221.5728155339884,-4.584666025357575,106
iWsc4pghIEWOQUZKuQJMfe516UI3,0.4386810056244135,0.2923260297403898,0.3134263034855791,120.0,-26.82619047221681,612.25,639.0761904722168,-1.9878631065394692,108
iZScIvzhvAdvlsBXU5D8IHwvG6Q2,0.36763393159186547,0.311775503098047,0.36932371363516925,120.0,165.03047618979508,1553.5,1388.469523810205,0.6134064580756075,107
iv9ew8Ci8lOzvXFiJw1acJfuRAl2,0.4871937922278548,0.40246031325536863,0.5770633564739786,118.0,446.9714285714374,1452.0,1005.0285714285626,-6.555954027621583,107
jpklrtZKDdb3UbsoQ7Ho5KuR5yb2,0.45809645300566015,0.34445268255466377,0.41205002434479404,120.0,392.77238096225824,1500.800000011921,1108.0276190496627,0.6922962917609411,107
jzdk8E3tVXTXIozlfK5oeEb7wWp2,0.3635152728215624,0.26902746962610363,0.2933814868618304,120.0,,,887.8205607449897,-5.035244998323984,108
kR2rCtaPyPaj7YMizKUDn5xL2qx1,0.49157805288608175,0.3208664855598349,0.5063326972356329,119.0,194.23205128206746,1061.1666666666667,866.9346153845993,-0.6885053123814036,108
kxerHPSL3bQjD74HhiebYf3blPr1,,,,,190.79245283019304,939.0,748.207547169807,-0.17756267621353464,108
lHDkoPQu5reNCO45npeYSS9eLQl1,0.44836396382679855,0.28613295185342835,0.5762024864589456,120.0,347.98761877786546,1117.7999997138977,769.8123809360322,-0.9855820243526078,108
lS4TefGwYUYBhCDMI0Ws2WxSQmm1,0.4113095414972716,0.24431283968127,0.4378787270113101,120.0,-75.84711538427155,1035.6500000003725,1111.497115384644,-0.43331492131484467,107
lpzDdvuMkKWkPxu6xeclmdctEp42,0.46151853284096456,0.37230776706370117,0.5525923267115208,120.0,,,838.6037383324632,1.397284702584122,108
mUZzgdWKnPb2txOkJg9FHgqX5792,0.48648369890038246,0.3540234618771052,0.4996302587001012,119.0,,,1092.4915887819272,5.567725216861356,108
mg2WZiRBn4NQDKiMK43Y8dBqyG53,0.7269255045227451,0.6479179402715931,0.7600713671775696,107.0,149.50943396226194,934.0,784.4905660377381,-3.877084667413513,108
mwsliuPsLFhRFjtjQwYkqcCRDvi2,0.49479611280107033,0.3457599804267282,0.6518763119018184,120.0,408.4679244329344,1122.0999999046326,713.6320754716982,-1.0913953930184568,108
nT1qJOiMyDdJ9ui4el195A8Hsgs1,0.3894560696732931,0.22346612788115838,0.47642197189684,120.0,,,984.5364486001363,-1.8382098447391397,108
pFlYc8DBmSXkvMIRgXFxvo3JB6j1,0.39667093213025795,0.3475549774486575,0.3509074346591657,106.0,,,786.6168224298979,-3.0784230678003865,108
pcbRW89vVJcviD87V3uxyG4I9st2,0.45685829734488287,0.34349202319806665,0.5538970410079052,120.0,658.6556603773475,1297.0999999999767,638.4443396226292,-3.8688173858895,108
q0Atnpm0jZS5swcVmq0EMalQUKw1,0.42313343574745643,0.27237929145526646,0.26979933758087193,120.0,64.47169811322101,809.0000000000146,744.5283018867935,-3.5196735079893826,108
qsRKc69hK6e8Uu6vr2pBO8NbpMt2,0.42586643960727666,0.31652314455351216,0.46084176356872075,120.0,142.939077669884,834.9749999999767,692.0359223300927,-3.3348857010315185,108
rUuJv5gl7dWVo7UPQWMx4bohxhK2,0.40401190131463743,0.26158460104121656,0.470434452602242,108.0,347.0875000000042,1646.5,1299.4124999999958,0.11771065337822949,106
ric6cNjG25XmZJCiKZDOxzeezao1,0.4312161396219546,0.2784343994933994,0.36382477770952487,120.0,178.61226415099088,923.8000000000466,745.1877358490557,0.18006944700954966,108
roaf78tUWxWSEjAUcUu8O7mrQbl1,0.47410988175824625,0.3990462837873173,0.571650594071375,117.0,,,796.4242990663118,1.0047762742119828,108
ssPK6ISW0HerTGke9hznqJ2LpKu1,0.45209125544581286,0.3529984018655528,0.26009902684240793,120.0,,,833.2560747984414,-3.869145964535579,108
tPxs1KmmX0ZKjHS9Nr63xoOPCRr2,0.36842062586250923,0.2665375484560816,0.34582344041856916,120.0,,,883.784112119229,-0.644771875480773,108
tSvrYUUA5nbPdK6C5D73giKnIDv2,,,,,1275.5428571428565,2146.0,870.4571428571434,0.5382569476861618,108
u64Uf920g5VD9Byq26LT2rs5o4t1,0.42355448937384976,0.26535230811506644,0.3236421099024646,120.0,,,738.8121495352727,-1.4556833765689023,108
uhq0lYdK12b2vJDJLS0EPTVe9nP2,,,,,312.48717948717797,1206.3333333333333,893.8461538461553,-2.76470543874994,108
v8nNKiWvPdcjiHXZci39OuFTY6M2,0.40269143083748266,0.3649473618585711,0.3861012826994031,120.0,,,1172.6831775692021,0.8548607273915155,108
vpFmF3TtdQTW3MyS8ouwz3urZVs2,0.3204483527821693,0.1866853308887593,0.26329496016378356,120.0,615.1179245291805,1501.300000000745,886.1820754715645,0.046816608553092394,108
wJPD2B4ZTJhCyUqGTwc8yJSKPPH2,0.4866001085826163,0.4519410026500937,0.45274165600450145,120.0,,,783.6280373831358,-0.4915679384024236,108
wJqgthfmzIMG17pc6WTECny3DVu2,0.45999292973314565,0.3536459966915725,0.5550393932875817,119.0,-107.91714285713226,667.0,774.9171428571323,-4.02501086078836,108
wdppvL4tIkVlGjou6aYzzjlaZXB2,0.5659802265563727,0.5224882703545901,0.5420208286371688,119.0,49.59368931975905,835.4499999992549,785.8563106794959,-2.6352010980621547,108
xBGZhFOeypWnqzSQClkrwV9z2vF3,0.5381593327884915,0.46239091682659333,0.6096651117211074,120.0,,,1036.6242990654166,1.1005658840750254,108
xyAILKfYP2M8GqAai11x6NT7IcP2,0.45979722358042346,0.2868029003991058,0.3592791762103495,120.0,,,981.060747663534,3.731280729145657,108
y1EHXv8tUTa4BRS4fRio7bULYfA2,0.47719282689404513,0.3991013834807022,0.5640423758928248,118.0,,,854.4682242892613,-2.460132959312596,108
yatBVTBMCSMp0wJluOCLzTFKMyP2,0.4323092187128777,0.2620308276163053,0.4663558613718344,104.0,,,956.9252336446509,0.21659723864841687,108
