participant_id,prp_t2_cv_all,prp_t2_cv_short,prp_t2_cv_long,prp_t2_trials,stroop_post_error_slowing,stroop_post_error_rt,stroop_post_correct_rt,stroop_incong_slope,stroop_trials
0d841i8KPjdjwCYfDuUUXj0SEjH2,0.49977747460222816,0.39874550045785484,0.5855205279038891,113.0,,,917.4115384266927,0.2802511462581984,105.0
0oa5NYVnIBS9NmrmRAZrahXDctP2,0.48342478776681846,0.4287024150770688,0.315600233113955,112.0,,,544.3252427175786,0.6055882637473292,104.0
146QT9LupyU2BAiTsB3PMIpVXM22,0.5524437457905654,0.433548171533278,0.6266397649266697,112.0,,,783.9547169814414,-1.1103397718638863,107.0
1Vb7DcXYw9R86bw5qj9eBk9fPqA2,0.3853069783079049,0.24697495496013167,0.4504077056384714,114.0,,,1171.0509433993752,-3.67841632252543,107.0
1dpmVw8fpcc2IHs0s9WqdU8Yvi53,0.34890292159377817,0.2664911407884794,0.35994748533000315,120.0,,,943.2754716940645,-2.7706876282820025,107.0
1tT7dcLvf0bMGBdBWWYd8YkdJwr1,0.3937823574070295,0.2580968376097725,0.46437884483493036,116.0,,,911.6495238043013,2.2886715230844805,106.0
23AEyocWhqY955WHbxhHRSgQ1ms2,0.4990804237593991,0.3765123949532152,0.40492538089772506,58.0,,,790.5273584902005,-1.1174328861687302,107.0
2h5FgHUEvBS1twD5DqbTIRrMm1f2,0.4986330465444194,0.27023447499343306,0.6705453266073739,116.0,,,765.5056603753342,-4.785698292346756,107.0
2zDXvJKvjeejeOSNbtDbtSI5cdz1,0.3675738438031962,0.21077546269447153,0.3660259933845785,119.0,,,759.42897196269,-0.38648261126089206,108.0
3WijiOiVCoMbn80F05SPYsxl0TC2,0.36101593374217045,0.22242992327162753,0.35552390130478856,119.0,,,835.6887850460605,-0.009872546277743316,108.0
3xCaqfcHxRQxuOlEzXz3PNcHODH2,0.5341401860011121,0.3844811318309669,0.664032676872478,119.0,,,708.8384615370574,0.28015876650391597,105.0
4ySuGdFDDmaAr6JUXbD4UIY6BQ13,0.4826786826767755,0.3206198621376602,0.637971347693618,111.0,,,820.7523364485982,-1.6109873073519834,108.0
5OOi73igsahMZ5IVKQwwyhnj4Cn2,0.4425388734646153,0.3387773061887526,0.4224011102649082,120.0,,,830.8669811321141,-1.655858751993482,107.0
5rXSa3anB5ejmFrnwUsTB82byup1,0.3504678715085291,0.2501941075356021,0.36403960382084577,118.0,,,852.936448598137,1.4272252207030804,108.0
5zxa5CMLGQSSonWOXqXf0QNS3PH3,0.3992869708835561,0.2991008965395896,0.3360240176427384,116.0,,,637.2981131998998,-1.3769467601903402,107.0
62fAfeQc27bZelkPX7G54T3gvci2,0.3358258552258487,0.24088168222852438,0.3630681448808945,119.0,,,1022.0447619047637,-0.24165179236920376,106.0
6ABZuv4jbjgE0B8TeyUk6nwVb122,0.37647628662003946,0.22789551134713154,0.3968320126488602,118.0,,,1050.5719626417783,1.821807795737477,108.0
6WFCyGwk71XLPBmbe4Vav3eotVm1,0.4766064848790051,0.44813009243174834,0.397797937024444,116.0,,,679.1373831891568,-1.0955562615214465,108.0
7cvQFrzIDEVAkFCcGAHZPUvJ2MF3,0.47724247003830583,0.2998512615538901,0.4660421113820468,117.0,,,1132.4915887774707,1.3272834243062477,108.0
80UJMJbCOMgs6YVpsMgXfYTzw6o2,0.36025150391949073,0.25814081615792084,0.29050532232690307,115.0,,,742.0355140188378,-1.6486157478313468,108.0
87w5Le0CgZhSfYAaOH3Xd2fc98l1,0.3837534766936267,0.2884916360907261,0.31982258253947177,118.0,,,1362.1542857142786,-1.4587164546541438,106.0
8bwaafIhKVMNBoHaXFcY8HirS9u2,0.34482191905731097,0.21581035124188738,0.2508053304569815,118.0,,,664.165714270728,-2.839780908065283,106.0
8cOQBMgQEYSlJ4CK60pFMmBVEBV2,0.36486357491545507,0.23321114354358377,0.41858763815542066,120.0,,,1122.9745282946892,-6.050616614802119,107.0
9Xz1RIwnPXgyRqmucudW9VeuDnq1,0.4731565614872529,0.4132118708544724,0.47202656181355884,113.0,,,1164.137254901959,-4.128507620934242,103.0
9g0uWFg7uhR46Q0VoG6MzqHOUL12,0.4099526395143732,0.33565308214422435,0.43129528110138143,107.0,,,1103.2339622603272,-4.731879660737537,107.0
9l7DjYLs0XdgwykPZR5E01KTZfu2,0.4570700105336706,0.36860555652493193,0.5395796337257645,106.0,,,788.2605769278912,-2.441313614937361,105.0
A9AEg0g6c2P1Bk72HLmnK3oWJ9B2,0.40399729154698244,0.23534215252494756,0.40294691058534043,117.0,,,854.054205607031,-6.061623003706996,108.0
ASGvwW80q7VY7xFaLGZhVuErUQu2,0.35537977428497947,0.2535944436524731,0.39804168532268985,107.0,,,866.9874999339764,-1.0304779929383774,105.0
AUKCfn4HzgVB7m6LNnh2gQb7G5s2,0.4887873116820737,0.3974450888317473,0.5700338406735819,117.0,,,948.6301887080355,-1.2629265005635515,107.0
AsXBOflrszVNKoFqbN61bMJqS0k2,0.31579045947723616,0.1894291421840259,0.2570120008826127,119.0,,,758.6854368888058,-0.28400118985481393,104.0
AyAnuCaltBbpEYbudoyNzTvXlcC2,0.4709621785045099,0.4065371449277497,0.4293009989804159,73.0,,,992.7339805856492,-1.890629614000021,104.0
BbwUTWswjtPWhb5DvLAmh9Hdpyl2,0.4478318937787637,0.3361641782614339,0.49151524936533053,108.0,,,823.6830188679259,-0.39748135342494284,107.0
BcCTlXWx6ARh4rBtkdWRgZH3C7H2,0.37444645984451136,0.2134753328126962,0.3356605795940004,117.0,,,965.3638095083691,0.7697651755747869,106.0
CDEoAyvS8feXLKMKsaZah9agEhF3,0.4211958645048624,0.29124064117647,0.3960308928951251,119.0,,,832.4383177570041,-0.6815783075799747,108.0
CGyTPhevTbSvVnZ8qSP0NtWuhgw1,0.4995695259250178,0.4202735377825508,0.42831961379892164,120.0,,,1051.6566037816822,-2.1402389054820397,107.0
Cbkx2NHyF3NrebzXGqNgSfiWent1,0.37371574111077127,0.3051685802660284,0.28864770492146097,120.0,,,847.8377358487473,-2.241764313136634,107.0
Co587hoelyeANqFX7AYvuVQW0lZ2,0.44956560291681613,0.3175858762971339,0.27240071787756187,118.0,,,646.0801886758715,-0.9621920455948362,107.0
CtJe4bZZnYUBNrcPk00d3YQFSGp2,0.37643703064381334,0.27481049618043907,0.39288535854733014,116.0,,,791.4289719626247,-1.0640475180826108,108.0
DAKDKPH698P12JfTbbjemLI6PIH2,0.3791627733433706,0.14037008078442637,0.32633215987185743,120.0,,,632.8392523354458,-2.4328311514353667,108.0
DPvStUYSmohmXwFwaKRqHv89R3k1,0.45283279052654407,0.2911321419902656,0.4334718629899757,114.0,,,986.6230769283496,2.6607079800802897,105.0
DaRehVxIOhXtEtUExdgvUl0mKcx2,0.3290168273253242,0.2390061744016132,0.388195432087137,110.0,,,1243.2839622671875,-2.5915092225064216,107.0
Df83JuPuJkXqTGbENhM2gw5SJM43,0.3482808895870904,0.2107707034648619,0.39745411465935593,39.0,,,1101.8194174757227,-1.9393166610552577,104.0
DzB19GqCB7fyrlEPexogWkjFzEx2,0.49538585720257944,0.3551235725142886,0.6094824408205354,113.0,,,1237.1828571364993,-1.1921365544583744,106.0
EEodWwGh0wWq5f8JmzfKvq0lyeu1,0.44987142857003365,0.3930213314789755,0.46964108573541236,106.0,,,715.3168316831689,3.54017020922341,102.0
EUhcW9kURScie1DwGPHqmNqotJB2,0.4856199773078888,0.3190319876218845,0.4712793142547848,113.0,,,1131.1990566073723,-2.829175054300348,107.0
EmfmKFDgWJdW47a6CNTNjnbYaPh2,0.3747508237655017,0.25335500438265157,0.41272370713929735,114.0,,,901.5719626228386,0.09502901376084386,108.0
EoToosG69XMp4LTYdB6sB9WTrv22,0.358378175532669,0.3084586577346876,0.32430526484925143,120.0,,,728.6462264195928,0.27143412765987124,107.0
Fz7EUjZCLuUBxLDUVtN6djaBTy42,0.3705109797674559,0.3128200969007623,0.25788929877052097,118.0,,,978.9728971942563,-0.8283583826086603,108.0
GDZGRW51kbWtAdUIHCtEd8sAtqY2,0.47480083325813716,0.30348533600134003,0.5026436699394692,112.0,,,953.7345794517303,-3.014960589396682,108.0
GE4hogtdLdTFbNasENgtm6SO3hC3,0.4314755775878409,0.38842362881228115,0.20484891441854558,117.0,,,1191.5320388359353,-3.0300933700576254,104.0
GEwkBw3YHaNp3TCh9YS9PKVfavz1,0.4401345030733894,0.34807057852762974,0.4170877071656527,119.0,,,719.0641509451956,-2.2659526240458367,107.0
HSggdq91WiQp16bOj7V3dABkcgk2,0.4551653029933037,0.35066398446456143,0.38421864915373477,120.0,,,716.2018691524167,-3.9051856345942304,108.0
HbydnnT1hUP3WagAy2TJAc6GqVs2,0.3583149482815634,0.28562466560018407,0.3919589283171025,120.0,,,956.1869158878504,-1.8078673217633032,108.0
HyQM2xKwwuVfqidmRYF6TiRk90C2,0.37482810475772205,0.3157132164905291,0.29322312580434406,119.0,,,647.6971962628799,-0.3153373405289247,108.0
IaTJhUGICmO9xcL3605RW8QHneN2,0.5070574391497554,0.3536701873826414,0.3630184044183453,113.0,,,718.1342857147966,-1.8787406875061874,106.0
JntnHLHjYhc0xJJQALM3h9R5Ozv1,0.458738154622341,0.3223920050856724,0.4295323334325394,114.0,,,770.9104761850266,-1.015929674579646,106.0
K26uNuY0VNPjJNF26wEx3bFg0kr2,0.42003717850826444,0.34282882601185766,0.4319732177627339,109.0,,,751.2028301886793,-3.0642549255273224,107.0
K7ykiXe6CqQUKpEzs2nYrMTVuDA2,0.3736389164615685,0.23698398184308744,0.3136154296957513,117.0,,,731.6635514018745,-2.2614471452797003,108.0
LSLmd8jENtONZFVkIpRDX665Bu73,0.556930664071212,0.496439585284514,0.5276948523113577,106.0,,,969.4084112153989,2.6260910685790746,108.0
Lhv9P8ZrkDSIB7BGwooAqfu8SGF3,0.3673884497935784,0.2098435123683808,0.18438305772363112,118.0,,,694.4299065398278,-1.5721262345784006,108.0
LliUMEIsrCVZ88YFQfevan2Og4z1,0.45594743939143445,0.35284161966032535,0.485619032888162,111.0,,,580.9209523809365,-2.5484629823520932,106.0
M4Km1Q2P2oPliChDQkwl6k20FUI3,0.44724076055637557,0.32279687906004634,0.49009765320743576,117.0,,,737.8339622920414,-0.8718952407220526,107.0
MMSYeiMQi3gMr4PrXQcpXzFiegj2,0.40909284202214485,0.30237849765110913,0.43264935175663655,112.0,,,1086.9452830373116,-0.03580378598701091,107.0
O61Eik2zvrSQLMNpFbTNEgjWwMr2,0.39215869703539985,0.22942323206714976,0.31001799868355706,103.0,,,818.6264150947472,-0.347325127379041,107.0
OExlWyngGfPrScDYjaRcv5PIAet1,0.508549889778798,0.3717622571478425,0.6098962150074029,115.0,,,752.0869158862907,-3.359984890165809,108.0
ORuVuFPU5idz3fMoXTGsbwToW2j2,0.3555361596943701,0.39859282186730266,0.2825524958517829,116.0,,,787.6254717134079,-0.6806851909298276,107.0
ORvIk1xRWIQmKuLVe6GXNouvAXx2,0.530900714906669,0.4229442639939907,0.49760462821485435,107.0,,,965.8300970896934,1.1103443052550663,104.0
PLreonkqaMeFc0UqxKUelH44UQu1,0.397651482149562,0.25397350712670047,0.3718444733796937,113.0,,,646.5259615392066,-1.5037430529151363,105.0
PkpTH7pWpEOG9A86xSloOSozwTk2,0.3547982726405071,0.270445446550033,0.39646513992180876,115.0,,,1373.9771428539639,-1.456944735057662,106.0
QG6VXg7od2fHJ1SF9ZzYBqUa1FY2,0.474360035047479,0.30431100398255456,0.5166899656485284,115.0,,,728.7773584906223,2.2847647904810717,107.0
QbOEVCaZLUMOgltUdXm58oZOALv2,0.3127875660695579,0.20718763189429143,0.3331208380094195,117.0,,,1064.9047169831563,-1.5160609853494662,107.0
Qg9GDwQ9hBNkDLt50CNLd4NqRlX2,0.3023764940516509,0.2488259790276914,0.2870925064687868,113.0,,,1176.2887850476202,0.9509153214571253,108.0
QreA2rLiUhV3YHeMfuHMPdGbpJ53,0.4632336376318761,0.36046488644058305,0.47585117987476266,107.0,,,1084.7846154020383,2.0897233008389127,105.0
Qv0jhW3sqicqQvd7LfReAsI7nD73,0.3657436719691278,0.27781109225722683,0.26727713682897997,119.0,,,657.2093457933341,-2.8382687400609488,108.0
Rc706mP0TSeIoIpMYH1SpRXjOxA2,0.41107885772165464,0.2907732577392947,0.46120019652992894,115.0,,,975.6990476154145,2.1619068151785523,106.0
Rmd4rr2vGjOoLvdfYd4EdYyxK3m1,0.45315116258407145,0.3860818473133788,0.4721827716034076,120.0,,,934.1710280391658,-0.6524414951562661,108.0
Ru3Qf6pXZua1DfNkQdhbor6iJ403,0.380838771669667,0.30389086655359593,0.3198918275909947,119.0,,,1010.3254901960711,-4.35456789472772,103.0
SOhR7IO689NQCPQu56SjATO8FR92,0.3682855878979824,0.2532734820752914,0.4549949552670607,109.0,,,969.7069306931006,0.6163995221723478,102.0
SPCT9D90pRa1ihXS5jEw6vCmquI3,0.5219535549416762,0.40933460823994955,0.3364867535957039,114.0,,,659.7586538461663,-0.945925908071716,105.0
SdDjNMBD2ZMTEwUphkohi2cZwUx1,0.5003446427331455,0.4335369804916221,0.372809871098476,115.0,,,712.1364487977786,2.9065023431757133,108.0
SpSfX0ZcfcPLdlOENlfdfvEPwru2,0.4280494152518972,0.26139411601307194,0.4354876708173655,113.0,,,848.9999999999945,-4.228157636016527,107.0
ToTCRJ4EX9OL6UlJqmDkaEbggWF2,0.4348669282743563,0.34205889768651637,0.5439759742669932,115.0,,,900.6859813076313,-3.444135663375379,108.0
Ub7nV8F55kPruh35ZpUcKoBUyn63,0.40377273289182253,0.2756684940681795,0.4626107581926388,116.0,,,1032.953773584006,0.894647130817628,107.0
UbwuSMtBsHdW3Ji41opk3GInMqi2,0.4867529695547524,0.3903756417919285,0.43482811156082557,116.0,,,752.7245283018586,-2.245114123294555,107.0
UmgPh1pF5GgcJ0YH7ANm2c0UQOP2,0.38595948344801356,0.23478521764403099,0.5258115932404873,109.0,,,,,
WKzqsLX1lNVSdbGgYTTVGtFwsrF3,0.3894244327844763,0.2777011427829068,0.44573289595048804,117.0,,,1005.990654205602,4.002704633598698,108.0
WbOfW9KmUkPQK8o5hlHJnJFdpp92,0.35987497381351913,0.21312116374748322,0.4574952365811568,113.0,,,1189.0524271839452,-7.349530910806137,104.0
WcTsIpSoEhYeIBSNjAbbdaNSBya2,0.4396107802935577,0.30320877078005315,0.47868712143192543,111.0,,,1054.5747663556972,-0.46448113496624344,108.0
WeHQDy9BWldTlaQDVVlsJNCqwxA2,0.40810207813109095,0.27411451414448823,0.3728520199779908,113.0,,,904.9439252336426,-3.118171247095575,108.0
Wfo71fsX1VVfPZnzhT7HEYBTwnq1,0.39384322761461554,0.2450511296129552,0.44557754667027194,120.0,,,771.9140186800021,-0.325411698963612,108.0
WqoZv41KTtTCuPKBPyClregrKAi1,0.44090679153179474,0.31008683811604626,0.5193472799574033,104.0,,,924.7102803738416,0.438341481533178,108.0
XehZHBpwr5MYzUXkj0FAYCsFG922,0.4290688141832985,0.3123916431064778,0.5279006704102268,115.0,,,712.6894230770233,-2.59614243695746,105.0
YEU5ox3jteVINfdSTg5ymqYcS9o2,0.4623804084146434,0.34544269669249666,0.4438703800699103,115.0,,,615.4596153858763,-0.43090469205079385,105.0
Yco8O7tmHlbsUBfKW2ywcZByGO32,0.39569552928285656,0.3392798625899478,0.35014613778846204,116.0,,,935.649056601918,0.5409874659198861,107.0
Z3GikGkUkjMOa6UK1xdIDvuGRHp2,0.4637956397752872,0.3073384544709308,0.33669610927084276,113.0,,,790.2219047705332,-3.220175872512697,106.0
aM2995jJmJWvr6cneaGH58HauIg2,0.34876872392378244,0.22463204448240967,0.314030711676887,117.0,,,1029.2382352913128,-2.0311690597085095,103.0
aj2Ivskb3BgyvBNTLIKlSZG0Sq22,0.44762191518367117,0.38080966471307015,0.3920101554616217,115.0,,,812.6457943882898,-2.923393819793222,108.0
azdL1gX79EVd9iepyCAVQrqIaQF3,0.3951077534291126,0.22977030383736863,0.46276914139675546,117.0,,,737.1980952381113,0.3153243843431609,106.0
bXpFswkI7TfIfL6G4FqWrbaxTGx2,0.47834543698582876,0.34045405414577956,0.5831936681332893,104.0,,,680.1941747572838,-1.9713994517280782,104.0
biQ16yPcCKSkJQhSxUKcDc8gm8I2,0.3255109474837285,0.2769747466607518,0.3036935976843311,110.0,,,1118.5869158851767,0.21005194021603496,108.0
btpcu1rB1JeSTo2upeHGPdv8kYG3,0.4248487254274421,0.40524237520542417,0.42592589155533467,109.0,,,984.2280373796125,-3.351554579227872,108.0
c0hRe9PCPPZs3HWFqhIQargNlp52,0.34215569141872,0.303597146623724,0.3656185821653031,112.0,,,951.5320754636009,-0.1953580603276044,107.0
cC0BEsQjfrcuCyoaOas9zJT0MNs2,0.3406968161409656,0.25705306957155505,0.39872865354500975,115.0,,,988.959813075645,-1.3056341242054066,108.0
cEIs6U87xfbSL5eFTXDK77MmvNf1,0.4351391391445368,0.33544657367358766,0.36234108675116367,113.0,,,870.1046728865008,1.0639794125563762,108.0
cUugYJoOmOSFc0Mh5JD0ZXJrYN52,0.44408335763542384,0.35571087009225255,0.3643300623280042,105.0,,,690.0990291260255,-4.204839724880028,104.0
cec6NLR2ZLVVw6h0TEKSNIH11v02,0.4170225901160423,0.25402894669940346,0.3281473634197231,120.0,,,853.231775700946,-2.2210592857280065,108.0
d9rwc0NXArcNlJvFsgKhQqkGxJq2,0.5134535561652789,0.41015960460602274,0.5240206933747155,111.0,,,842.1308411220524,-1.931973289607618,108.0
dGL2zPQyEvdibcvxeTencpgoWbg2,,,,,,,810.6504854369011,-2.173801376990819,104.0
dnkEqKuvjoQzAQm5yXlrAOp9ZlD3,0.45150192593759925,0.32446088192743583,0.48463784452856074,110.0,,,810.8018691573187,-2.2928789115660564,108.0
fEq0OghbLpfD1jigl1Mbz96aMbg2,0.5203464839808217,0.3729533141665405,0.5181360960335489,110.0,,,655.8617647066712,-2.5543429963509974,103.0
foaW7wtvY3XLNdguFUK7OvOefP93,0.3727528030438717,0.3059258935810606,0.26443485191436417,118.0,,,845.0252336448556,3.847122302158143,108.0
h12a1QYNpYbl3T0Gj1PxUz3EnEx2,0.39625859481615966,0.29340857859235886,0.4687816412732323,112.0,,,888.2233009708749,-2.9815430830866685,104.0
h5RYP03wJuVN0xo7qAR8CKFxLaj1,0.38492933641983956,0.3475755205844825,0.3912947047303401,113.0,,,1021.5433962277647,0.810673504827378,107.0
i1tBstVkNiVP0qro7TgGD08IGGa2,0.4533470103818237,0.2902803395513238,0.5670261892542003,117.0,,,1183.3952380906967,0.5709100408392211,106.0
iKVZi0Oo96UrMBhPQMHWFcf55uA3,0.46973377676148725,0.3229225298966763,0.4734994012219598,109.0,,,1221.009708737872,-5.6501944443113015,104.0
iWsc4pghIEWOQUZKuQJMfe516UI3,0.4386810056244135,0.2923260297403898,0.3134263034855791,120.0,,,639.591428567682,-1.916339941298903,106.0
iZScIvzhvAdvlsBXU5D8IHwvG6Q2,0.3551844076429564,0.3083691468893354,0.29180218804814256,117.0,,,1384.1780952385493,0.8969599753240174,106.0
idP8RVfm74N86O0dszLXANIpjXv2,0.49130336090943105,0.4178676378901763,0.3721626047617647,115.0,,,941.4028571429707,0.9475901200119139,106.0
iv9ew8Ci8lOzvXFiJw1acJfuRAl2,0.4582506968526746,0.3664055977414356,0.5906953652662801,105.0,,,1014.2857142857055,-5.947194010007908,106.0
jpklrtZKDdb3UbsoQ7Ho5KuR5yb2,0.45726637029850475,0.34445268255466377,0.41205002434479404,118.0,,,1116.8161904783476,0.6922962917609411,106.0
jzdk8E3tVXTXIozlfK5oeEb7wWp2,0.36459063573275946,0.26892927697533264,0.30088643766294065,115.0,,,887.8205607449897,-5.035244998323984,108.0
kI0YdycDU0X5hcoEPjEON3Ionyd2,0.37723374051149566,0.24359186961857765,0.4696435183483731,101.0,,,891.7392523388996,-2.4986295267722833,108.0
kR2rCtaPyPaj7YMizKUDn5xL2qx1,0.481020978928501,0.2955737999539675,0.5125166404276168,113.0,,,874.1326923076748,-0.40435413785601426,105.0
kxerHPSL3bQjD74HhiebYf3blPr1,,,,,,,748.2169811320733,-0.12121254932894689,107.0
lHDkoPQu5reNCO45npeYSS9eLQl1,0.42803524251953984,0.28332420119521506,0.5143331403790239,112.0,,,775.2495237850007,-0.997397731211774,106.0
lS4TefGwYUYBhCDMI0Ws2WxSQmm1,0.3985710934383122,0.23243193706909515,0.41680305825739206,115.0,,,1107.8134615385118,-0.6287154762108739,105.0
lpzDdvuMkKWkPxu6xeclmdctEp42,0.40637449029009737,0.30697942219968644,0.44981221370597324,113.0,,,838.6037383324632,1.397284702584122,108.0
m69r9GQTk2b51mvxrFLt4fZeJi52,0.45198040025462066,0.37687709436327144,0.4426089835236496,115.0,,,757.2476190476168,0.8715467935374555,106.0
mUZzgdWKnPb2txOkJg9FHgqX5792,0.441372765905946,0.32467653801568774,0.40112072146104616,114.0,,,1092.4915887819272,5.567725216861356,108.0
mg2WZiRBn4NQDKiMK43Y8dBqyG53,,,,,,,784.3207547169833,-3.877084667413513,107.0
mweMgSlGM2VxThhwnupYxYzUbR23,0.4101250989141187,0.3080839996979918,0.43099236287546727,116.0,,,719.1140186916014,-0.3959464972606464,108.0
mwsliuPsLFhRFjtjQwYkqcCRDvi2,0.508233040275909,0.3564771405337441,0.6618597902283138,112.0,,,716.2415094330626,-0.9751075858130448,107.0
nT1qJOiMyDdJ9ui4el195A8Hsgs1,0.3766000459063811,0.22241216761439053,0.46787514163894334,114.0,,,984.5364486001363,-1.8382098447391397,108.0
ohl9pXqpeSMfepC3w9h0tW5SbJw1,0.4479247921532485,0.3170061416359506,0.46930936483937413,118.0,,,1308.4280373831768,0.4460344715869563,108.0
pFlYc8DBmSXkvMIRgXFxvo3JB6j1,0.38404339822644673,0.33937369722261085,0.3506506888565211,102.0,,,786.6168224298979,-3.0784230678003865,108.0
pRQimOpZtsekBI2I1kbnD3pycmo1,0.5051126754988198,0.41624628298030425,0.4398040887292041,113.0,,,798.1009345778795,-3.22955933761372,108.0
pcbRW89vVJcviD87V3uxyG4I9st2,0.46194519535127443,0.347485328122987,0.5669121527356429,114.0,,,644.9443396226292,-3.8688173858895,107.0
q0Atnpm0jZS5swcVmq0EMalQUKw1,0.4152142366322782,0.2570388612061481,0.2687797761370761,112.0,,,745.0566037735863,-3.5967897008647487,107.0
qZZiI6GzgxOrpQDGu42ZA0xsGEJ2,0.52192454587927,0.41998159725705386,0.42847839267691445,116.0,,,880.9123809513592,-1.1719218295637572,106.0
qnR5PLX1v3fPi6SwTJMwGcadwyD3,0.4722997122310425,0.2886279995594292,0.4215156820039794,110.0,,,794.9259615374299,-1.74585258157565,105.0
qsRKc69hK6e8Uu6vr2pBO8NbpMt2,0.4197544995911391,0.32403994405225134,0.4675529480948234,110.0,,,683.9165048543641,-3.3774691052113,104.0
rFV2EUbp64f5ORSh7DqwmCQmeqT2,0.43626599430887336,0.3588206485299393,0.4800327443369245,115.0,,,958.9320754704048,-1.5962597103482317,107.0
rUuJv5gl7dWVo7UPQWMx4bohxhK2,0.3897289896714625,0.26295100415885225,0.42576283140712917,95.0,,,1306.649038461534,0.4037542230670756,105.0
ric6cNjG25XmZJCiKZDOxzeezao1,0.43368202452279814,0.27986117906108626,0.3682650248405859,118.0,,,747.4773584905669,0.18006944700954966,107.0
roaf78tUWxWSEjAUcUu8O7mrQbl1,0.45972833625277953,0.39667383151652863,0.548808888059384,112.0,,,796.4242990663118,1.0047762742119828,108.0
ssPK6ISW0HerTGke9hznqJ2LpKu1,0.4609834979647939,0.36983983147195315,0.2597460865885654,112.0,,,833.2560747984414,-3.869145964535579,108.0
tB4wPBbnWJUXeOC3Zxjph0Esgjf1,0.4176794657229546,0.29117327153062983,0.47819622201964396,100.0,,,1320.0442307591438,-3.3936459381573867,105.0
tPxs1KmmX0ZKjHS9Nr63xoOPCRr2,0.36842062586250923,0.2665375484560816,0.34582344041856916,120.0,,,883.784112119229,-0.644771875480773,108.0
tSvrYUUA5nbPdK6C5D73giKnIDv2,,,,,,,897.4476190476196,0.602639922160914,106.0
tv88wS5Nf6SjruozSmXJxQSmx6J3,0.4502053947965936,0.31026476153424176,0.516157621436586,101.0,,,1249.8219047631537,0.8793127554761381,106.0
u64Uf920g5VD9Byq26LT2rs5o4t1,0.42355448937384976,0.26535230811506644,0.3236421099024646,120.0,,,738.8121495352727,-1.4556833765689023,108.0
uM3kxG78g5ZtXtbAEzZyM4XFmaI3,0.3857735807425854,0.23227768339357002,0.4024227855268718,118.0,,,955.0757009334096,-1.7857413754166112,108.0
uhq0lYdK12b2vJDJLS0EPTVe9nP2,,,,,,,896.6442307692322,-2.756931522704502,105.0
v8nNKiWvPdcjiHXZci39OuFTY6M2,0.40144886442080824,0.363669033257838,0.38337468725067364,113.0,,,1172.6831775692021,0.8548607273915155,108.0
vpFmF3TtdQTW3MyS8ouwz3urZVs2,0.3183496488864024,0.1866853308887593,0.26340860260384175,119.0,,,893.4849056602578,0.046816608553092394,107.0
wJPD2B4ZTJhCyUqGTwc8yJSKPPH2,0.49247426083401563,0.4475691346762472,0.43475965488187035,115.0,,,783.6280373831358,-0.4915679384024236,108.0
wJqgthfmzIMG17pc6WTECny3DVu2,0.4610671962881147,0.35793131422079466,0.5431437436147948,113.0,,,776.8552380952231,-4.02501086078836,106.0
wdppvL4tIkVlGjou6aYzzjlaZXB2,0.571271760843079,0.4956479956072103,0.5546525515726772,97.0,,,794.1466019415813,-2.4232498868873296,104.0
wkhxvE50megJGMA1EiROSZIJWNq1,0.39473306967231936,0.271034229322155,0.4128053050280036,118.0,,,866.2616822428514,0.48121721214180335,108.0
xBGZhFOeypWnqzSQClkrwV9z2vF3,0.5430937358603546,0.46999362354494023,0.5791577687077603,114.0,,,1036.6242990654166,1.1005658840750254,108.0
xHctBv4C2EU8rHYRouw0btT3GT02,0.347529301915875,0.26845724209298594,0.39854804927738946,117.0,,,740.4291262135624,-0.5269349898763781,104.0
xyAILKfYP2M8GqAai11x6NT7IcP2,0.4569938244579152,0.2868029003991058,0.35929655043813047,119.0,,,981.060747663534,3.731280729145657,108.0
y1EHXv8tUTa4BRS4fRio7bULYfA2,0.4785112443029065,0.40774504008401147,0.5638654969130695,110.0,,,854.4682242892613,-2.460132959312596,108.0
yatBVTBMCSMp0wJluOCLzTFKMyP2,0.42131376387891434,0.2620308276163053,0.47368899501736256,99.0,,,956.9252336446509,0.21659723864841687,108.0
yfjd8LbAMrYeG54927d3GiKAyXI2,0.5178048087676581,0.3472261657777534,0.555036765549,111.0,,,872.7396226415104,0.23405281615003162,107.0
