participantId,testName,duration_seconds,n_trials,acc_t1,rt2_soa_1200,rt2_soa_600,rt2_soa_50,rt2_soa_150,acc_t2,mrt_t1,mrt_t2,stroop_effect,accuracy,mrt_incong,mrt_total,mrt_cong,total,conceptualLevelResponses,nonPerseverativeErrorCount,perseverativeResponses,trialsToFirstConceptualResp,totalTrialCount,totalCorrectCount,timestamp,conceptualLevelResponsesPercent,completedCategories,totalErrorCount,perseverativeErrorCount,trialsToCompleteFirstCategory,learningToLearn,perseverativeResponsesPercent,failureToMaintainSet,rt2_soa_300,learningToLearnHeatonClrDelta,learningEfficiencyDeltaTrials,hasFirstCLR,trialsToFirstConceptualResp0,categoryClrPercents
7QYZfcjgZHcVB941oHiLGGPTk7U2,prp,307.0,96.0,98.95833333333333,928.0,1096.0,1734.0,1660.0,98.95833333333333,1146.0,1351.0,,,,,,,,,,,,,,,,,,,,,,,,,,,
7QYZfcjgZHcVB941oHiLGGPTk7U2,stroop,,,,,,,,,,,230.0,99.07407407407408,1051.0,895.0,821.0,108.0,,,,,,,,,,,,,,,,,,,,,
7QYZfcjgZHcVB941oHiLGGPTk7U2,wcst,,,,,,,,,,,,,,,,,60.0,4.0,24.0,5.0,74.0,63.0,2025-06-23T15:31:46.424,95.23809523809523,6.0,11.0,7.0,12.0,2.0,32.432432432432435,0.0,,,,,,
CJINye92gDQlrSU7mv9XjlJBXo62,prp,327.0,120.0,97.5,650.0,721.0,1286.0,1173.0,100.0,795.0,952.0,,,,,,,,,,,,,,,,,,,,,,930.0,,,,,
CJINye92gDQlrSU7mv9XjlJBXo62,stroop,,,,,,,,,,,100.0,96.29629629629629,848.0,823.0,747.0,108.0,,,,,,,,,,,,,,,,,,,,,
GE4hogtdLdTFbNasENgtm6SO3hC3,prp,319.0,120.0,99.16666666666667,630.0,653.0,1148.0,1072.0,98.33333333333333,1140.0,871.0,,,,,,,,,,,,,,,,,,,,,,870.0,,,,,
GE4hogtdLdTFbNasENgtm6SO3hC3,stroop,199.0,,,,,,,,,,167.0,96.29629629629629,1267.0,1197.0,1100.0,108.0,,,,,,,,,,,,,,,,,,,,,
GE4hogtdLdTFbNasENgtm6SO3hC3,wcst,191.0,,,,,,,,,,,,,,,,60.0,4.0,11.0,5.0,67.0,60.0,2025-09-01T21:17:49.018,89.55223880597015,6.0,7.0,3.0,12.0,,16.417910447761194,0.0,,-2.1367521367521363,-0.3333333333333339,True,4.0,"[83.33333333333334, 90.9090909090909, 100, 76.92307692307693, 90.9090909090909, 100]"
Qv0jhW3sqicqQvd7LfReAsI7nD73,prp,302.0,120.0,100.0,523.0,559.0,937.0,883.0,99.16666666666667,1190.0,745.0,,,,,,,,,,,,,,,,,,,,,,829.0,,,,,
Qv0jhW3sqicqQvd7LfReAsI7nD73,stroop,138.0,,,,,,,,,,139.0,100.0,747.0,662.0,608.0,108.0,,,,,,,,,,,,,,,,,,,,,
Qv0jhW3sqicqQvd7LfReAsI7nD73,wcst,174.0,,,,,,,,,,,,,,,,60.0,6.0,26.0,8.0,77.0,64.0,2025-09-02T15:19:51.446,77.92207792207793,6.0,13.0,7.0,15.0,,33.76623376623377,0.0,,22.655122655122682,3.666666666666666,True,7.0,"[66.66666666666666, 71.42857142857143, 66.66666666666666, 90.9090909090909, 90.9090909090909, 90.9090909090909]"
ORvIk1xRWIQmKuLVe6GXNouvAXx2,prp,331.0,120.0,95.83333333333333,581.0,806.0,1311.0,1049.0,93.33333333333333,889.0,975.0,,,,,,,,,,,,,,,,,,,,,,1137.0,,,,,
ORvIk1xRWIQmKuLVe6GXNouvAXx2,stroop,172.0,,,,,,,,,,293.0,96.29629629629629,1116.0,965.0,823.0,108.0,,,,,,,,,,,,,,,,,,,,,
ORvIk1xRWIQmKuLVe6GXNouvAXx2,wcst,369.0,,,,,,,,,,,,,,,,66.0,7.0,37.0,3.0,101.0,77.0,2025-09-03T16:47:43.091,65.34653465346535,6.0,24.0,17.0,10.0,,36.633663366336634,0.0,,-20.75977162933684,-8.999999999999998,True,2.0,"[100, 83.33333333333334, 66.66666666666666, 43.47826086956522, 53.333333333333336, 90.9090909090909]"
80UJMJbCOMgs6YVpsMgXfYTzw6o2,prp,310.0,120.0,100.0,522.0,658.0,1086.0,956.0,95.83333333333333,822.0,814.0,,,,,,,,,,,,,,,,,,,,,,823.0,,,,,
80UJMJbCOMgs6YVpsMgXfYTzw6o2,stroop,149.0,,,,,,,,,,74.0,100.0,773.0,747.0,699.0,108.0,,,,,,,,,,,,,,,,,,,,,
80UJMJbCOMgs6YVpsMgXfYTzw6o2,wcst,175.0,,,,,,,,,,,,,,,,60.0,5.0,19.0,6.0,71.0,61.0,2025-09-03T20:55:16.297,84.50704225352112,6.0,10.0,5.0,13.0,,26.76056338028169,0.0,,7.187257187257174,1.0,True,5.0,"[76.92307692307693, 83.33333333333334, 83.33333333333334, 83.33333333333334, 90.9090909090909, 90.9090909090909]"
rUuJv5gl7dWVo7UPQWMx4bohxhK2,prp,438.0,120.0,85.0,1098.0,1702.0,1950.0,1982.0,86.66666666666667,1515.0,1662.0,,,,,,,,,,,,,,,,,,,,,,1675.0,,,,,
rUuJv5gl7dWVo7UPQWMx4bohxhK2,stroop,211.0,,,,,,,,,,397.0,97.22222222222221,1471.0,1310.0,1074.0,108.0,,,,,,,,,,,,,,,,,,,,,
rUuJv5gl7dWVo7UPQWMx4bohxhK2,wcst,271.0,,,,,,,,,,,,,,,,71.0,6.0,22.0,3.0,89.0,74.0,2025-09-03T21:14:46.806,79.7752808988764,6.0,15.0,9.0,10.0,,24.719101123595504,2.0,,-13.61737677527151,-2.9999999999999982,True,2.0,"[100, 78.94736842105263, 90.9090909090909, 90.9090909090909, 66.66666666666666, 71.42857142857143]"
xyAILKfYP2M8GqAai11x6NT7IcP2,prp,349.0,120.0,100.0,609.0,792.0,1544.0,1536.0,99.16666666666667,1044.0,1135.0,,,,,,,,,,,,,,,,,,,,,,1174.0,,,,,
xyAILKfYP2M8GqAai11x6NT7IcP2,stroop,173.0,,,,,,,,,,204.0,100.0,1135.0,981.0,931.0,108.0,,,,,,,,,,,,,,,,,,,,,
xyAILKfYP2M8GqAai11x6NT7IcP2,wcst,205.0,,,,,,,,,,,,,,,,63.0,5.0,22.0,5.0,81.0,68.0,2025-09-06T10:27:38.890,77.77777777777779,6.0,13.0,8.0,12.0,,27.160493827160494,0.0,,0.6876456876456842,-1.6666666666666679,True,4.0,"[83.33333333333334, 76.92307692307693, 76.92307692307693, 83.33333333333334, 65, 90.9090909090909]"
pcbRW89vVJcviD87V3uxyG4I9st2,prp,305.0,120.0,98.33333333333333,515.0,810.0,907.0,890.0,96.66666666666667,937.0,751.0,,,,,,,,,,,,,,,,,,,,,,641.0,,,,,
pcbRW89vVJcviD87V3uxyG4I9st2,stroop,138.0,,,,,,,,,,91.0,99.07407407407408,701.0,650.0,610.0,108.0,,,,,,,,,,,,,,,,,,,,,
pcbRW89vVJcviD87V3uxyG4I9st2,wcst,178.0,,,,,,,,,,,,,,,,66.0,2.0,14.0,3.0,71.0,67.0,2025-09-08T19:40:11.807,92.95774647887323,6.0,4.0,2.0,10.0,,19.718309859154928,1.0,,4.882154882154893,-1.666666666666666,True,2.0,"[100, 90.9090909090909, 83.33333333333334, 88.88888888888889, 100, 100]"
8cOQBMgQEYSlJ4CK60pFMmBVEBV2,prp,369.0,120.0,100.0,844.0,1012.0,1717.0,1452.0,100.0,1089.0,1303.0,,,,,,,,,,,,,,,,,,,,,,1487.0,,,,,
8cOQBMgQEYSlJ4CK60pFMmBVEBV2,stroop,189.0,,,,,,,,,,317.0,99.07407407407408,1325.0,1129.0,1008.0,108.0,,,,,,,,,,,,,,,,,,,,,
8cOQBMgQEYSlJ4CK60pFMmBVEBV2,wcst,302.0,,,,,,,,,,,,,,,,60.0,22.0,23.0,31.0,98.0,70.0,2025-09-10T15:09:49.241,61.224489795918366,6.0,28.0,6.0,38.0,,23.46938775510204,0.0,,19.394348341716764,8.666666666666668,True,30.0,"[26.31578947368421, 83.33333333333334, 83.33333333333334, 90.9090909090909, 76.92307692307693, 83.33333333333334]"
yatBVTBMCSMp0wJluOCLzTFKMyP2,prp,401.0,120.0,87.5,820.0,996.0,1645.0,1864.0,83.33333333333333,1177.0,1399.0,,,,,,,,,,,,,,,,,,,,,,1560.0,,,,,
yatBVTBMCSMp0wJluOCLzTFKMyP2,stroop,170.0,,,,,,,,,,34.0,100.0,990.0,958.0,956.0,108.0,,,,,,,,,,,,,,,,,,,,,
yatBVTBMCSMp0wJluOCLzTFKMyP2,wcst,251.0,,,,,,,,,,,,,,,,64.0,14.0,25.0,6.0,91.0,67.0,2025-09-12T15:37:32.623,70.32967032967034,6.0,24.0,10.0,21.0,,27.472527472527474,0.0,,5.338044308632533,3.0000000000000018,True,5.0,"[66.66666666666666, 83.33333333333334, 58.82352941176471, 62.5, 90.9090909090909, 71.42857142857143]"
u64Uf920g5VD9Byq26LT2rs5o4t1,prp,300.0,120.0,100.0,436.0,556.0,1058.0,814.0,100.0,860.0,745.0,,,,,,,,,,,,,,,,,,,,,,862.0,,,,,
u64Uf920g5VD9Byq26LT2rs5o4t1,stroop,146.0,,,,,,,,,,98.0,100.0,783.0,742.0,684.0,108.0,,,,,,,,,,,,,,,,,,,,,
u64Uf920g5VD9Byq26LT2rs5o4t1,wcst,266.0,,,,,,,,,,,,,,,,84.0,3.0,46.0,4.0,107.0,90.0,2025-09-17T16:35:50.594,78.50467289719626,6.0,17.0,14.0,11.0,,42.99065420560748,0.0,,5.558209906035998,4.333333333333334,True,3.0,"[90.9090909090909, 71.42857142857143, 71.42857142857143, 90.9090909090909, 82.6086956521739, 76.92307692307693]"
nT1qJOiMyDdJ9ui4el195A8Hsgs1,prp,355.0,120.0,96.66666666666667,647.0,1056.0,1573.0,1464.0,98.33333333333333,881.0,1201.0,,,,,,,,,,,,,,,,,,,,,,1234.0,,,,,
nT1qJOiMyDdJ9ui4el195A8Hsgs1,stroop,174.0,,,,,,,,,,112.0,100.0,1037.0,991.0,925.0,108.0,,,,,,,,,,,,,,,,,,,,,
nT1qJOiMyDdJ9ui4el195A8Hsgs1,wcst,264.0,,,,,,,,,,,,,,,,69.0,2.0,20.0,3.0,79.0,70.0,2025-09-18T15:43:29.044,87.34177215189874,6.0,9.0,7.0,10.0,,25.31645569620253,1.0,,-4.419191919191917,-4.333333333333334,True,2.0,"[100, 83.33333333333334, 90.9090909090909, 90.9090909090909, 79.16666666666666, 90.9090909090909]"
cUugYJoOmOSFc0Mh5JD0ZXJrYN52,prp,301.0,120.0,94.16666666666667,507.0,666.0,915.0,915.0,92.5,1063.0,752.0,,,,,,,,,,,,,,,,,,,,,,775.0,,,,,
cUugYJoOmOSFc0Mh5JD0ZXJrYN52,stroop,141.0,,,,,,,,,,218.0,96.29629629629629,817.0,695.0,599.0,108.0,,,,,,,,,,,,,,,,,,,,,
cUugYJoOmOSFc0Mh5JD0ZXJrYN52,wcst,288.0,,,,,,,,,,,,,,,,96.0,7.0,34.0,3.0,119.0,102.0,2025-09-21T00:44:07.149,80.67226890756302,6.0,17.0,10.0,10.0,,28.57142857142857,3.0,,-18.518518518518505,-19.0,True,2.0,"[100, 90.9090909090909, 100, 73.01587301587301, 90.9090909090909, 71.42857142857143]"
dGL2zPQyEvdibcvxeTencpgoWbg2,stroop,156.0,,,,,,,,,,41.0,96.29629629629629,872.0,821.0,832.0,108.0,,,,,,,,,,,,,,,,,,,,,
ric6cNjG25XmZJCiKZDOxzeezao1,prp,377.0,120.0,100.0,532.0,756.0,1314.0,1135.0,98.33333333333333,907.0,961.0,,,,,,,,,,,,,,,,,,,,,,1065.0,,,,,
ric6cNjG25XmZJCiKZDOxzeezao1,stroop,146.0,,,,,,,,,,61.0,99.07407407407408,801.0,749.0,739.0,108.0,,,,,,,,,,,,,,,,,,,,,
ric6cNjG25XmZJCiKZDOxzeezao1,wcst,207.0,,,,,,,,,,,,,,,,69.0,7.0,36.0,6.0,100.0,75.0,2025-11-03T10:20:46.620,69.0,6.0,25.0,18.0,13.0,,36.0,0.0,,-11.850112253338068,-7.333333333333332,True,5.0,"[76.92307692307693, 76.92307692307693, 76.92307692307693, 71.42857142857143, 62.5, 61.29032258064516]"
kxerHPSL3bQjD74HhiebYf3blPr1,prp,570.0,120.0,0.0,,,,,0.0,,,,,,,,,,,,,,,,,,,,,,,,,,,,,
kxerHPSL3bQjD74HhiebYf3blPr1,stroop,147.0,,,,,,,,,,129.0,99.07407407407408,839.0,749.0,710.0,108.0,,,,,,,,,,,,,,,,,,,,,
kxerHPSL3bQjD74HhiebYf3blPr1,wcst,193.0,,,,,,,,,,,,,,,,27.0,52.0,37.0,9.0,128.0,48.0,2025-09-23T14:08:10.278,21.09375,2.0,80.0,28.0,16.0,,28.90625,0.0,,0.0,0.0,True,8.0,"[62.5, 66.66666666666666]"
2h5FgHUEvBS1twD5DqbTIRrMm1f2,prp,317.0,120.0,100.0,518.0,868.0,1152.0,1023.0,96.66666666666667,916.0,878.0,,,,,,,,,,,,,,,,,,,,,,835.0,,,,,
2h5FgHUEvBS1twD5DqbTIRrMm1f2,stroop,149.0,,,,,,,,,,144.0,99.07407407407408,864.0,771.0,720.0,108.0,,,,,,,,,,,,,,,,,,,,,
2h5FgHUEvBS1twD5DqbTIRrMm1f2,wcst,323.0,,,,,,,,,,,,,,,,69.0,9.0,36.0,5.0,99.0,77.0,2025-09-25T15:29:22.937,69.6969696969697,6.0,22.0,13.0,12.0,,36.36363636363637,0.0,,1.2142178808845472,-3.666666666666666,True,4.0,"[83.33333333333334, 55.55555555555556, 71.42857142857143, 76.92307692307693, 66.66666666666666, 70.37037037037037]"
lpzDdvuMkKWkPxu6xeclmdctEp42,prp,337.0,120.0,96.66666666666667,810.0,766.0,1221.0,1325.0,97.5,1169.0,1037.0,,,,,,,,,,,,,,,,,,,,,,1053.0,,,,,
lpzDdvuMkKWkPxu6xeclmdctEp42,stroop,158.0,,,,,,,,,,103.0,100.0,906.0,838.0,802.0,108.0,,,,,,,,,,,,,,,,,,,,,
lpzDdvuMkKWkPxu6xeclmdctEp42,wcst,212.0,,,,,,,,,,,,,,,,69.0,4.0,30.0,6.0,84.0,71.0,2025-09-26T23:44:33.544,82.14285714285714,6.0,13.0,9.0,13.0,,35.714285714285715,1.0,,-0.6216006216006207,3.333333333333332,True,5.0,"[76.92307692307693, 83.33333333333334, 86.36363636363636, 90.9090909090909, 76.92307692307693, 76.92307692307693]"
iv9ew8Ci8lOzvXFiJw1acJfuRAl2,prp,349.0,120.0,90.83333333333333,899.0,1176.0,1231.0,1176.0,94.16666666666667,872.0,1139.0,,,,,,,,,,,,,,,,,,,,,,1193.0,,,,,
iv9ew8Ci8lOzvXFiJw1acJfuRAl2,stroop,178.0,,,,,,,,,,409.0,98.14814814814815,1277.0,1024.0,868.0,108.0,,,,,,,,,,,,,,,,,,,,,
iv9ew8Ci8lOzvXFiJw1acJfuRAl2,wcst,232.0,,,,,,,,,,,,,,,,60.0,7.0,25.0,4.0,79.0,63.0,2025-09-27T13:40:09.703,75.9493670886076,6.0,16.0,9.0,11.0,,31.645569620253166,0.0,,-1.2025012025012103,0.3333333333333339,True,3.0,"[90.9090909090909, 55.55555555555556, 90.9090909090909, 71.42857142857143, 71.42857142857143, 90.9090909090909]"
A9AEg0g6c2P1Bk72HLmnK3oWJ9B2,prp,314.0,120.0,100.0,507.0,746.0,1119.0,1076.0,97.5,905.0,856.0,,,,,,,,,,,,,,,,,,,,,,841.0,,,,,
A9AEg0g6c2P1Bk72HLmnK3oWJ9B2,stroop,159.0,,,,,,,,,,127.0,100.0,961.0,861.0,834.0,108.0,,,,,,,,,,,,,,,,,,,,,
A9AEg0g6c2P1Bk72HLmnK3oWJ9B2,wcst,210.0,,,,,,,,,,,,,,,,60.0,7.0,24.0,15.0,82.0,66.0,2025-09-28T01:31:09.966,73.17073170731707,6.0,16.0,9.0,22.0,,29.268292682926827,0.0,,12.62626262626263,3.333333333333334,True,14.0,"[45.45454545454545, 90.9090909090909, 76.92307692307693, 90.9090909090909, 83.33333333333334, 76.92307692307693]"
7cvQFrzIDEVAkFCcGAHZPUvJ2MF3,prp,322.0,120.0,99.16666666666667,479.0,701.0,1278.0,1180.0,98.33333333333333,1036.0,920.0,,,,,,,,,,,,,,,,,,,,,,990.0,,,,,
7cvQFrzIDEVAkFCcGAHZPUvJ2MF3,stroop,190.0,,,,,,,,,,146.0,100.0,1180.0,1137.0,1035.0,108.0,,,,,,,,,,,,,,,,,,,,,
7cvQFrzIDEVAkFCcGAHZPUvJ2MF3,wcst,213.0,,,,,,,,,,,,,,,,60.0,6.0,22.0,9.0,76.0,64.0,2025-09-28T22:18:35.877,78.94736842105263,6.0,12.0,6.0,16.0,,28.947368421052634,0.0,,6.944444444444457,1.333333333333334,True,8.0,"[62.5, 90.9090909090909, 76.92307692307693, 90.9090909090909, 83.33333333333334, 76.92307692307693]"
Qg9GDwQ9hBNkDLt50CNLd4NqRlX2,prp,413.0,120.0,95.83333333333333,1398.0,1476.0,2038.0,1866.0,98.33333333333333,1719.0,1663.0,,,,,,,,,,,,,,,,,,,,,,1549.0,,,,,
Qg9GDwQ9hBNkDLt50CNLd4NqRlX2,stroop,194.0,,,,,,,,,,95.0,100.0,1242.0,1182.0,1147.0,108.0,,,,,,,,,,,,,,,,,,,,,
Qg9GDwQ9hBNkDLt50CNLd4NqRlX2,wcst,243.0,,,,,,,,,,,,,,,,60.0,1.0,18.0,3.0,69.0,61.0,2025-09-30T13:56:50.208,86.95652173913044,6.0,8.0,7.0,10.0,,26.08695652173913,0.0,,0.9379509379509443,0.33333333333333215,True,2.0,"[100, 71.42857142857143, 90.9090909090909, 90.9090909090909, 90.9090909090909, 83.33333333333334]"
wJqgthfmzIMG17pc6WTECny3DVu2,prp,354.0,120.0,96.66666666666667,704.0,1160.0,1502.0,1210.0,96.66666666666667,1429.0,1170.0,,,,,,,,,,,,,,,,,,,,,,1274.0,,,,,
wJqgthfmzIMG17pc6WTECny3DVu2,stroop,150.0,,,,,,,,,,15.0,98.14814814814815,783.0,777.0,767.0,108.0,,,,,,,,,,,,,,,,,,,,,
LliUMEIsrCVZ88YFQfevan2Og4z1,prp,300.0,120.0,100.0,537.0,680.0,979.0,844.0,92.5,881.0,754.0,,,,,,,,,,,,,,,,,,,,,,751.0,,,,,
LliUMEIsrCVZ88YFQfevan2Og4z1,stroop,129.0,,,,,,,,,,107.0,98.14814814814815,636.0,584.0,529.0,108.0,,,,,,,,,,,,,,,,,,,,,
LliUMEIsrCVZ88YFQfevan2Og4z1,wcst,211.0,,,,,,,,,,,,,,,,72.0,5.0,34.0,3.0,97.0,79.0,2025-10-04T23:11:36.776,74.22680412371135,6.0,18.0,13.0,10.0,,35.051546391752574,0.0,,4.884135472370758,3.666666666666666,True,2.0,"[100, 48.484848484848484, 90.9090909090909, 86.66666666666667, 76.47058823529412, 90.9090909090909]"
EUhcW9kURScie1DwGPHqmNqotJB2,prp,345.0,120.0,99.16666666666667,579.0,783.0,1426.0,1293.0,95.0,1050.0,1058.0,,,,,,,,,,,,,,,,,,,,,,1180.0,,,,,
EUhcW9kURScie1DwGPHqmNqotJB2,stroop,192.0,,,,,,,,,,131.0,99.07407407407408,1209.0,1137.0,1078.0,108.0,,,,,,,,,,,,,,,,,,,,,
EUhcW9kURScie1DwGPHqmNqotJB2,wcst,407.0,,,,,,,,,,,,,,,,60.0,10.0,67.0,3.0,128.0,77.0,2025-10-07T17:29:07.270,46.875,3.0,51.0,41.0,10.0,,52.34375,2.0,,0.0,0.0,True,2.0,"[100, 28.57142857142857, 80]"
aj2Ivskb3BgyvBNTLIKlSZG0Sq22,prp,335.0,120.0,100.0,719.0,919.0,1404.0,1235.0,95.83333333333333,1118.0,1067.0,,,,,,,,,,,,,,,,,,,,,,1087.0,,,,,
aj2Ivskb3BgyvBNTLIKlSZG0Sq22,stroop,153.0,,,,,,,,,,-35.0,100.0,830.0,813.0,864.0,108.0,,,,,,,,,,,,,,,,,,,,,
aj2Ivskb3BgyvBNTLIKlSZG0Sq22,wcst,254.0,,,,,,,,,,,,,,,,87.0,11.0,36.0,3.0,119.0,95.0,2025-10-12T22:00:14.237,73.10924369747899,6.0,24.0,13.0,39.0,,30.252100840336134,1.0,,21.008158508158516,13.666666666666668,True,2.0,"[66.66666666666666, 65.38461538461539, 66.66666666666666, 87.5, 90.9090909090909, 83.33333333333334]"
iZScIvzhvAdvlsBXU5D8IHwvG6Q2,prp,340.0,120.0,99.16666666666667,868.0,769.0,1146.0,1242.0,98.33333333333333,1184.0,1018.0,,,,,,,,,,,,,,,,,,,,,,1074.0,,,,,
iZScIvzhvAdvlsBXU5D8IHwvG6Q2,stroop,220.0,,,,,,,,,,229.0,98.14814814814815,1557.0,1390.0,1328.0,108.0,,,,,,,,,,,,,,,,,,,,,
iZScIvzhvAdvlsBXU5D8IHwvG6Q2,wcst,647.0,,,,,,,,,,,,,,,,65.0,22.0,45.0,3.0,126.0,84.0,2025-10-13T16:51:08.873,51.587301587301596,6.0,42.0,20.0,10.0,,35.714285714285715,1.0,,-39.277389277389275,-19.333333333333336,True,2.0,"[100, 90.9090909090909, 76.92307692307693, 25, 62.5, 62.5]"
vpFmF3TtdQTW3MyS8ouwz3urZVs2,prp,326.0,120.0,100.0,574.0,728.0,1179.0,1073.0,99.16666666666667,765.0,895.0,,,,,,,,,,,,,,,,,,,,,,917.0,,,,,
vpFmF3TtdQTW3MyS8ouwz3urZVs2,stroop,164.0,,,,,,,,,,285.0,99.07407407407408,1059.0,894.0,773.0,108.0,,,,,,,,,,,,,,,,,,,,,
wdppvL4tIkVlGjou6aYzzjlaZXB2,prp,313.0,120.0,89.16666666666667,564.0,699.0,1113.0,962.0,88.33333333333333,1012.0,826.0,,,,,,,,,,,,,,,,,,,,,,834.0,,,,,
wdppvL4tIkVlGjou6aYzzjlaZXB2,stroop,152.0,,,,,,,,,,120.0,96.29629629629629,866.0,803.0,747.0,108.0,,,,,,,,,,,,,,,,,,,,,
wdppvL4tIkVlGjou6aYzzjlaZXB2,wcst,295.0,,,,,,,,,,,,,,,,37.0,45.0,47.0,3.0,128.0,53.0,2025-10-17T16:12:49.732,28.90625,2.0,75.0,30.0,10.0,,36.71875,0.0,,0.0,0.0,True,2.0,"[100, 70]"
jpklrtZKDdb3UbsoQ7Ho5KuR5yb2,prp,336.0,120.0,99.16666666666667,635.0,811.0,1252.0,1222.0,99.16666666666667,1113.0,1006.0,,,,,,,,,,,,,,,,,,,,,,1114.0,,,,,
jpklrtZKDdb3UbsoQ7Ho5KuR5yb2,stroop,189.0,,,,,,,,,,165.0,98.14814814814815,1180.0,1116.0,1015.0,108.0,,,,,,,,,,,,,,,,,,,,,
jpklrtZKDdb3UbsoQ7Ho5KuR5yb2,wcst,215.0,,,,,,,,,,,,,,,,60.0,2.0,14.0,4.0,64.0,60.0,2025-10-23T22:34:33.450,93.75,6.0,4.0,2.0,11.0,,21.875,0.0,,5.555555555555543,0.6666666666666661,True,3.0,"[90.9090909090909, 100, 83.33333333333334, 100, 90.9090909090909, 100]"
K26uNuY0VNPjJNF26wEx3bFg0kr2,prp,326.0,120.0,95.83333333333333,563.0,834.0,1183.0,944.0,94.16666666666667,1137.0,898.0,,,,,,,,,,,,,,,,,,,,,,980.0,,,,,
K26uNuY0VNPjJNF26wEx3bFg0kr2,stroop,150.0,,,,,,,,,,89.0,99.07407407407408,793.0,758.0,705.0,108.0,,,,,,,,,,,,,,,,,,,,,
K26uNuY0VNPjJNF26wEx3bFg0kr2,wcst,156.0,,,,,,,,,,,,,,,,60.0,0.0,26.0,3.0,70.0,63.0,2025-10-23T23:03:26.631,85.71428571428571,6.0,7.0,7.0,10.0,,37.142857142857146,0.0,,-9.523809523809518,-1.333333333333334,True,2.0,"[100, 83.33333333333334, 90.9090909090909, 90.9090909090909, 71.42857142857143, 83.33333333333334]"
pFlYc8DBmSXkvMIRgXFxvo3JB6j1,prp,404.0,120.0,87.5,963.0,1309.0,1787.0,1646.0,87.5,1228.0,1451.0,,,,,,,,,,,,,,,,,,,,,,1610.0,,,,,
pFlYc8DBmSXkvMIRgXFxvo3JB6j1,stroop,151.0,,,,,,,,,,68.0,100.0,832.0,789.0,764.0,108.0,,,,,,,,,,,,,,,,,,,,,
pFlYc8DBmSXkvMIRgXFxvo3JB6j1,wcst,207.0,,,,,,,,,,,,,,,,68.0,1.0,31.0,3.0,85.0,70.0,2025-10-25T22:29:57.524,80.0,6.0,15.0,14.0,10.0,,36.470588235294116,0.0,,-13.183113183113178,-5.666666666666666,True,2.0,"[100, 76.92307692307693, 90.9090909090909, 81.81818181818183, 90.9090909090909, 55.55555555555556]"
DPvStUYSmohmXwFwaKRqHv89R3k1,prp,330.0,120.0,98.33333333333333,529.0,788.0,1309.0,1220.0,96.66666666666667,885.0,987.0,,,,,,,,,,,,,,,,,,,,,,1075.0,,,,,
DPvStUYSmohmXwFwaKRqHv89R3k1,stroop,174.0,,,,,,,,,,218.0,97.22222222222221,1133.0,992.0,915.0,108.0,,,,,,,,,,,,,,,,,,,,,
DPvStUYSmohmXwFwaKRqHv89R3k1,wcst,164.0,,,,,,,,,,,,,,,,60.0,0.0,18.0,3.0,63.0,60.0,2025-10-27T15:42:32.360,95.23809523809523,6.0,3.0,3.0,10.0,,28.57142857142857,0.0,,3.030303030303017,0.33333333333333215,True,2.0,"[100, 90.9090909090909, 90.9090909090909, 100, 100, 90.9090909090909]"
K7ykiXe6CqQUKpEzs2nYrMTVuDA2,prp,314.0,120.0,100.0,514.0,633.0,1161.0,1019.0,97.5,791.0,854.0,,,,,,,,,,,,,,,,,,,,,,936.0,,,,,
K7ykiXe6CqQUKpEzs2nYrMTVuDA2,stroop,146.0,,,,,,,,,,82.0,100.0,784.0,736.0,701.0,108.0,,,,,,,,,,,,,,,,,,,,,
K7ykiXe6CqQUKpEzs2nYrMTVuDA2,wcst,326.0,,,,,,,,,,,,,,,,60.0,17.0,25.0,23.0,93.0,69.0,2025-10-28T00:50:53.399,64.51612903225806,6.0,24.0,7.0,30.0,,26.881720430107524,0.0,,19.19191919191919,6.333333333333334,True,22.0,"[33.33333333333333, 83.33333333333334, 71.42857142857143, 71.42857142857143, 90.9090909090909, 83.33333333333334]"
62fAfeQc27bZelkPX7G54T3gvci2,prp,366.0,120.0,100.0,809.0,1209.0,1497.0,1533.0,99.16666666666667,1179.0,1267.0,,,,,,,,,,,,,,,,,,,,,,1286.0,,,,,
62fAfeQc27bZelkPX7G54T3gvci2,stroop,180.0,,,,,,,,,,190.0,98.14814814814815,1158.0,1023.0,968.0,108.0,,,,,,,,,,,,,,,,,,,,,
62fAfeQc27bZelkPX7G54T3gvci2,wcst,214.0,,,,,,,,,,,,,,,,60.0,2.0,16.0,6.0,70.0,62.0,2025-10-28T00:52:20.607,85.71428571428571,6.0,8.0,6.0,13.0,,22.857142857142858,0.0,,0.0,0.0,True,5.0,"[76.92307692307693, 90.9090909090909, 90.9090909090909, 90.9090909090909, 76.92307692307693, 90.9090909090909]"
q0Atnpm0jZS5swcVmq0EMalQUKw1,prp,308.0,120.0,95.83333333333333,460.0,573.0,1065.0,1048.0,97.5,889.0,806.0,,,,,,,,,,,,,,,,,,,,,,882.0,,,,,
q0Atnpm0jZS5swcVmq0EMalQUKw1,stroop,147.0,,,,,,,,,,58.0,99.07407407407408,803.0,751.0,745.0,108.0,,,,,,,,,,,,,,,,,,,,,
q0Atnpm0jZS5swcVmq0EMalQUKw1,wcst,184.0,,,,,,,,,,,,,,,,60.0,5.0,15.0,6.0,71.0,61.0,2025-10-28T15:28:23.212,84.50704225352112,6.0,10.0,5.0,13.0,,21.12676056338028,0.0,,7.187257187257174,1.0,True,5.0,"[76.92307692307693, 83.33333333333334, 83.33333333333334, 90.9090909090909, 90.9090909090909, 83.33333333333334]"
kR2rCtaPyPaj7YMizKUDn5xL2qx1,prp,339.0,120.0,95.83333333333333,637.0,794.0,1383.0,1406.0,97.5,1032.0,1055.0,,,,,,,,,,,,,,,,,,,,,,1082.0,,,,,
kR2rCtaPyPaj7YMizKUDn5xL2qx1,stroop,161.0,,,,,,,,,,289.0,97.22222222222221,1055.0,879.0,766.0,108.0,,,,,,,,,,,,,,,,,,,,,
kR2rCtaPyPaj7YMizKUDn5xL2qx1,wcst,201.0,,,,,,,,,,,,,,,,67.0,4.0,30.0,6.0,84.0,70.0,2025-10-28T15:37:15.611,79.76190476190477,6.0,14.0,10.0,13.0,,35.714285714285715,0.0,,5.699855699855675,-2.0,True,5.0,"[76.92307692307693, 83.33333333333334, 71.42857142857143, 80.95238095238095, 76.92307692307693, 90.9090909090909]"
dnkEqKuvjoQzAQm5yXlrAOp9ZlD3,prp,352.0,120.0,95.0,726.0,925.0,1516.0,1454.0,95.83333333333333,1095.0,1131.0,,,,,,,,,,,,,,,,,,,,,,1052.0,,,,,
dnkEqKuvjoQzAQm5yXlrAOp9ZlD3,stroop,156.0,,,,,,,,,,140.0,100.0,893.0,812.0,753.0,108.0,,,,,,,,,,,,,,,,,,,,,
dnkEqKuvjoQzAQm5yXlrAOp9ZlD3,wcst,277.0,,,,,,,,,,,,,,,,60.0,3.0,18.0,4.0,73.0,62.0,2025-10-28T16:50:40.438,82.1917808219178,6.0,11.0,8.0,11.0,,24.65753424657534,0.0,,1.5873015873015817,0.3333333333333339,True,3.0,"[90.9090909090909, 66.66666666666666, 90.9090909090909, 71.42857142857143, 90.9090909090909, 90.9090909090909]"
mwsliuPsLFhRFjtjQwYkqcCRDvi2,prp,328.0,120.0,97.5,581.0,887.0,1187.0,1097.0,95.83333333333333,948.0,950.0,,,,,,,,,,,,,,,,,,,,,,1031.0,,,,,
mwsliuPsLFhRFjtjQwYkqcCRDvi2,stroop,145.0,,,,,,,,,,-48.0,99.07407407407408,700.0,719.0,748.0,108.0,,,,,,,,,,,,,,,,,,,,,
mwsliuPsLFhRFjtjQwYkqcCRDvi2,wcst,175.0,,,,,,,,,,,,,,,,60.0,3.0,21.0,7.0,72.0,62.0,2025-10-28T20:20:24.224,83.33333333333334,6.0,10.0,7.0,14.0,,29.166666666666668,0.0,,13.68076368076369,2.0,True,6.0,"[71.42857142857143, 83.33333333333334, 76.92307692307693, 90.9090909090909, 90.9090909090909, 90.9090909090909]"
iKVZi0Oo96UrMBhPQMHWFcf55uA3,prp,353.0,120.0,96.66666666666667,801.0,951.0,1615.0,1285.0,94.16666666666667,1141.0,1190.0,,,,,,,,,,,,,,,,,,,,,,1290.0,,,,,
iKVZi0Oo96UrMBhPQMHWFcf55uA3,stroop,203.0,,,,,,,,,,130.0,96.29629629629629,1276.0,1234.0,1146.0,108.0,,,,,,,,,,,,,,,,,,,,,
iKVZi0Oo96UrMBhPQMHWFcf55uA3,wcst,187.0,,,,,,,,,,,,,,,,60.0,4.0,17.0,5.0,68.0,60.0,2025-10-29T14:06:47.689,88.23529411764706,6.0,8.0,4.0,12.0,,25.0,0.0,,-5.555555555555543,-0.6666666666666661,True,4.0,"[83.33333333333334, 90.9090909090909, 100, 83.33333333333334, 90.9090909090909, 83.33333333333334]"
Lhv9P8ZrkDSIB7BGwooAqfu8SGF3,prp,297.0,120.0,98.33333333333333,451.0,475.0,991.0,874.0,100.0,698.0,708.0,,,,,,,,,,,,,,,,,,,,,,748.0,,,,,
Lhv9P8ZrkDSIB7BGwooAqfu8SGF3,stroop,143.0,,,,,,,,,,2.0,100.0,719.0,701.0,717.0,108.0,,,,,,,,,,,,,,,,,,,,,
Lhv9P8ZrkDSIB7BGwooAqfu8SGF3,wcst,172.0,,,,,,,,,,,,,,,,60.0,2.0,19.0,5.0,71.0,63.0,2025-10-31T16:34:38.773,84.50704225352112,6.0,8.0,6.0,12.0,,26.76056338028169,0.0,,-5.555555555555557,-1.0,True,4.0,"[83.33333333333334, 90.9090909090909, 90.9090909090909, 90.9090909090909, 90.9090909090909, 66.66666666666666]"
ssPK6ISW0HerTGke9hznqJ2LpKu1,prp,297.0,120.0,96.66666666666667,431.0,473.0,1006.0,799.0,95.83333333333333,693.0,684.0,,,,,,,,,,,,,,,,,,,,,,722.0,,,,,
ssPK6ISW0HerTGke9hznqJ2LpKu1,stroop,158.0,,,,,,,,,,134.0,100.0,905.0,835.0,771.0,108.0,,,,,,,,,,,,,,,,,,,,,
ssPK6ISW0HerTGke9hznqJ2LpKu1,wcst,199.0,,,,,,,,,,,,,,,,68.0,5.0,27.0,3.0,83.0,70.0,2025-11-03T18:54:07.045,81.92771084337349,6.0,13.0,8.0,15.0,,32.53012048192771,0.0,,-4.4914344914344895,-1.0,True,2.0,"[93.33333333333333, 76.92307692307693, 83.33333333333334, 77.77777777777779, 90.9090909090909, 71.42857142857143]"
qsRKc69hK6e8Uu6vr2pBO8NbpMt2,prp,319.0,120.0,97.5,577.0,852.0,1092.0,1117.0,94.16666666666667,829.0,902.0,,,,,,,,,,,,,,,,,,,,,,866.0,,,,,
qsRKc69hK6e8Uu6vr2pBO8NbpMt2,stroop,142.0,,,,,,,,,,93.0,96.29629629629629,744.0,689.0,651.0,108.0,,,,,,,,,,,,,,,,,,,,,
qsRKc69hK6e8Uu6vr2pBO8NbpMt2,wcst,226.0,,,,,,,,,,,,,,,,66.0,2.0,27.0,5.0,79.0,70.0,2025-11-03T18:56:38.047,83.54430379746836,6.0,9.0,7.0,12.0,,34.177215189873415,0.0,,-0.6734006734006783,-2.333333333333334,True,4.0,"[83.33333333333334, 76.92307692307693, 90.9090909090909, 76.92307692307693, 83.33333333333334, 88.88888888888889]"
5zxa5CMLGQSSonWOXqXf0QNS3PH3,prp,314.0,120.0,97.5,547.0,645.0,1131.0,1027.0,99.16666666666667,905.0,853.0,,,,,,,,,,,,,,,,,,,,,,920.0,,,,,
5zxa5CMLGQSSonWOXqXf0QNS3PH3,stroop,136.0,,,,,,,,,,128.0,99.07407407407408,705.0,641.0,577.0,108.0,,,,,,,,,,,,,,,,,,,,,
5zxa5CMLGQSSonWOXqXf0QNS3PH3,wcst,206.0,,,,,,,,,,,,,,,,67.0,6.0,26.0,7.0,87.0,74.0,2025-11-03T21:57:00.908,77.01149425287356,6.0,13.0,7.0,14.0,,29.88505747126437,0.0,,-6.744133059922547,-4.333333333333334,True,6.0,"[71.42857142857143, 90.9090909090909, 83.33333333333334, 83.33333333333334, 73.68421052631578, 68.42105263157895]"
lS4TefGwYUYBhCDMI0Ws2WxSQmm1,prp,383.0,120.0,97.5,768.0,1032.0,1709.0,1585.0,97.5,1207.0,1297.0,,,,,,,,,,,,,,,,,,,,,,1411.0,,,,,
lS4TefGwYUYBhCDMI0Ws2WxSQmm1,stroop,193.0,,,,,,,,,,148.0,97.22222222222221,1184.0,1112.0,1035.0,108.0,,,,,,,,,,,,,,,,,,,,,
h5RYP03wJuVN0xo7qAR8CKFxLaj1,prp,365.0,120.0,97.5,937.0,1127.0,1490.0,1285.0,95.83333333333333,1519.0,1260.0,,,,,,,,,,,,,,,,,,,,,,1440.0,,,,,
h5RYP03wJuVN0xo7qAR8CKFxLaj1,stroop,180.0,,,,,,,,,,296.0,99.07407407407408,1217.0,1023.0,921.0,108.0,,,,,,,,,,,,,,,,,,,,,
h5RYP03wJuVN0xo7qAR8CKFxLaj1,wcst,344.0,,,,,,,,,,,,,,,,64.0,34.0,24.0,23.0,126.0,82.0,2025-11-04T12:42:48.615,50.79365079365079,6.0,44.0,10.0,56.0,,19.047619047619047,0.0,,32.45920745920746,18.0,True,22.0,"[25, 45.45454545454545, 83.33333333333334, 76.92307692307693, 83.33333333333334, 90.9090909090909]"
CGyTPhevTbSvVnZ8qSP0NtWuhgw1,prp,319.0,120.0,100.0,532.0,793.0,1290.0,1040.0,100.0,833.0,889.0,,,,,,,,,,,,,,,,,,,,,,792.0,,,,,
CGyTPhevTbSvVnZ8qSP0NtWuhgw1,stroop,182.0,,,,,,,,,,398.0,99.07407407407408,1301.0,1057.0,903.0,108.0,,,,,,,,,,,,,,,,,,,,,
CGyTPhevTbSvVnZ8qSP0NtWuhgw1,wcst,238.0,,,,,,,,,,,,,,,,64.0,9.0,24.0,9.0,91.0,71.0,2025-11-13T17:26:16.618,70.32967032967034,6.0,20.0,11.0,16.0,,26.373626373626376,0.0,,-2.111022505759351,-2.333333333333332,True,8.0,"[62.5, 66.66666666666666, 90.9090909090909, 83.33333333333334, 52.63157894736842, 77.77777777777779]"
v8nNKiWvPdcjiHXZci39OuFTY6M2,prp,376.0,120.0,98.33333333333333,949.0,1232.0,1667.0,1511.0,95.83333333333333,1316.0,1338.0,,,,,,,,,,,,,,,,,,,,,,1347.0,,,,,
v8nNKiWvPdcjiHXZci39OuFTY6M2,stroop,196.0,,,,,,,,,,218.0,100.0,1316.0,1175.0,1098.0,108.0,,,,,,,,,,,,,,,,,,,,,
v8nNKiWvPdcjiHXZci39OuFTY6M2,wcst,271.0,,,,,,,,,,,,,,,,60.0,4.0,21.0,5.0,76.0,63.0,2025-11-05T00:35:33.273,78.94736842105263,6.0,13.0,9.0,12.0,,27.631578947368425,0.0,,2.9761904761904816,0.6666666666666661,True,4.0,"[83.33333333333334, 62.5, 90.9090909090909, 90.9090909090909, 83.33333333333334, 71.42857142857143]"
LSLmd8jENtONZFVkIpRDX665Bu73,prp,345.0,120.0,90.0,707.0,950.0,1441.0,1110.0,95.83333333333333,1286.0,1042.0,,,,,,,,,,,,,,,,,,,,,,986.0,,,,,
LSLmd8jENtONZFVkIpRDX665Bu73,stroop,173.0,,,,,,,,,,231.0,100.0,1090.0,970.0,859.0,108.0,,,,,,,,,,,,,,,,,,,,,
LSLmd8jENtONZFVkIpRDX665Bu73,wcst,224.0,,,,,,,,,,,,,,,,63.0,6.0,22.0,4.0,82.0,67.0,2025-11-04T22:02:43.634,76.82926829268293,6.0,15.0,9.0,11.0,,26.82926829268293,0.0,,-5.050505050505038,-2.666666666666666,True,3.0,"[90.9090909090909, 90.9090909090909, 66.66666666666666, 59.09090909090909, 90.9090909090909, 83.33333333333334]"
mUZzgdWKnPb2txOkJg9FHgqX5792,prp,351.0,120.0,96.66666666666667,825.0,915.0,1432.0,1213.0,97.5,1203.0,1128.0,,,,,,,,,,,,,,,,,,,,,,1247.0,,,,,
mUZzgdWKnPb2txOkJg9FHgqX5792,stroop,184.0,,,,,,,,,,136.0,100.0,1199.0,1092.0,1063.0,108.0,,,,,,,,,,,,,,,,,,,,,
mUZzgdWKnPb2txOkJg9FHgqX5792,wcst,315.0,,,,,,,,,,,,,,,,73.0,9.0,33.0,10.0,107.0,82.0,2025-11-04T15:30:36.110,68.22429906542055,6.0,25.0,16.0,26.0,,30.8411214953271,1.0,,28.406023800760657,4.999999999999998,True,9.0,"[53.84615384615385, 52.63157894736842, 62.5, 76.92307692307693, 90.9090909090909, 86.36363636363636]"
WbOfW9KmUkPQK8o5hlHJnJFdpp92,prp,292.0,120.0,97.5,456.0,575.0,798.0,696.0,96.66666666666667,585.0,639.0,,,,,,,,,,,,,,,,,,,,,,672.0,,,,,
WbOfW9KmUkPQK8o5hlHJnJFdpp92,stroop,199.0,,,,,,,,,,-1.0,96.29629629629629,1159.0,1188.0,1159.0,108.0,,,,,,,,,,,,,,,,,,,,,
WbOfW9KmUkPQK8o5hlHJnJFdpp92,wcst,261.0,,,,,,,,,,,,,,,,74.0,11.0,20.0,13.0,98.0,81.0,2025-11-04T15:35:29.482,75.51020408163265,6.0,17.0,6.0,27.0,,20.408163265306122,2.0,,8.12459145792478,1.9999999999999982,True,12.0,"[59.25925925925925, 90.9090909090909, 71.42857142857143, 85.71428571428571, 83.33333333333334, 76.92307692307693]"
1dpmVw8fpcc2IHs0s9WqdU8Yvi53,prp,382.0,120.0,100.0,888.0,1229.0,1627.0,1719.0,100.0,1612.0,1409.0,,,,,,,,,,,,,,,,,,,,,,1580.0,,,,,
1dpmVw8fpcc2IHs0s9WqdU8Yvi53,stroop,170.0,,,,,,,,,,232.0,99.07407407407408,1093.0,943.0,861.0,108.0,,,,,,,,,,,,,,,,,,,,,
1dpmVw8fpcc2IHs0s9WqdU8Yvi53,wcst,216.0,,,,,,,,,,,,,,,,60.0,4.0,26.0,8.0,72.0,62.0,2025-11-04T16:44:24.800,83.33333333333334,6.0,10.0,6.0,15.0,,36.11111111111111,0.0,,3.0303030303030454,0.6666666666666679,True,7.0,"[66.66666666666666, 90.9090909090909, 90.9090909090909, 90.9090909090909, 83.33333333333334, 83.33333333333334]"
4ySuGdFDDmaAr6JUXbD4UIY6BQ13,prp,335.0,120.0,98.33333333333333,584.0,866.0,1217.0,1365.0,94.16666666666667,1097.0,1029.0,,,,,,,,,,,,,,,,,,,,,,1069.0,,,,,
4ySuGdFDDmaAr6JUXbD4UIY6BQ13,stroop,156.0,,,,,,,,,,179.0,100.0,966.0,828.0,788.0,108.0,,,,,,,,,,,,,,,,,,,,,
4ySuGdFDDmaAr6JUXbD4UIY6BQ13,wcst,192.0,,,,,,,,,,,,,,,,69.0,2.0,22.0,4.0,82.0,73.0,2025-11-04T20:59:57.327,84.14634146341463,6.0,9.0,7.0,11.0,,26.82926829268293,0.0,,1.2014555492816186,-3.333333333333334,True,3.0,"[90.9090909090909, 90.9090909090909, 71.42857142857143, 83.33333333333334, 90.9090909090909, 82.6086956521739]"
tSvrYUUA5nbPdK6C5D73giKnIDv2,stroop,163.0,,,,,,,,,,15.0,98.14814814814815,885.0,908.0,870.0,108.0,,,,,,,,,,,,,,,,,,,,,
fEq0OghbLpfD1jigl1Mbz96aMbg2,prp,318.0,120.0,92.5,474.0,771.0,1219.0,1146.0,98.33333333333333,948.0,914.0,,,,,,,,,,,,,,,,,,,,,,975.0,,,,,
fEq0OghbLpfD1jigl1Mbz96aMbg2,stroop,137.0,,,,,,,,,,141.0,95.37037037037037,718.0,662.0,576.0,108.0,,,,,,,,,,,,,,,,,,,,,
fEq0OghbLpfD1jigl1Mbz96aMbg2,wcst,213.0,,,,,,,,,,,,,,,,60.0,2.0,37.0,3.0,88.0,67.0,2025-11-05T18:50:55.606,68.18181818181817,6.0,21.0,19.0,10.0,,42.04545454545455,0.0,,17.221475842165503,6.000000000000002,True,2.0,"[100, 71.42857142857143, 34.48275862068966, 83.33333333333334, 90.9090909090909, 83.33333333333334]"
QG6VXg7od2fHJ1SF9ZzYBqUa1FY2,prp,320.0,120.0,96.66666666666667,481.0,707.0,1207.0,1140.0,99.16666666666667,856.0,920.0,,,,,,,,,,,,,,,,,,,,,,1074.0,,,,,
QG6VXg7od2fHJ1SF9ZzYBqUa1FY2,stroop,145.0,,,,,,,,,,165.0,99.07407407407408,804.0,730.0,639.0,108.0,,,,,,,,,,,,,,,,,,,,,
QG6VXg7od2fHJ1SF9ZzYBqUa1FY2,wcst,173.0,,,,,,,,,,,,,,,,60.0,4.0,15.0,4.0,74.0,64.0,2025-11-05T19:25:26.985,81.08108108108108,6.0,10.0,6.0,11.0,,20.27027027027027,0.0,,-0.3885003885003897,0.0,True,3.0,"[90.9090909090909, 76.92307692307693, 76.92307692307693, 83.33333333333334, 76.92307692307693, 83.33333333333334]"
cEIs6U87xfbSL5eFTXDK77MmvNf1,prp,339.0,120.0,100.0,665.0,836.0,1262.0,1357.0,94.16666666666667,1196.0,1029.0,,,,,,,,,,,,,,,,,,,,,,1036.0,,,,,
cEIs6U87xfbSL5eFTXDK77MmvNf1,stroop,162.0,,,,,,,,,,45.0,100.0,924.0,882.0,879.0,108.0,,,,,,,,,,,,,,,,,,,,,
cEIs6U87xfbSL5eFTXDK77MmvNf1,wcst,265.0,,,,,,,,,,,,,,,,85.0,5.0,30.0,4.0,103.0,87.0,2025-11-05T20:54:06.050,82.52427184466019,6.0,16.0,11.0,11.0,,29.126213592233007,0.0,,1.6583416583416692,11.000000000000002,True,3.0,"[90.9090909090909, 86.66666666666667, 76.19047619047619, 90.9090909090909, 76.92307692307693, 90.9090909090909]"
AsXBOflrszVNKoFqbN61bMJqS0k2,prp,349.0,120.0,99.16666666666667,772.0,886.0,1467.0,1334.0,100.0,1277.0,1144.0,,,,,,,,,,,,,,,,,,,,,,1261.0,,,,,
AsXBOflrszVNKoFqbN61bMJqS0k2,stroop,150.0,,,,,,,,,,89.0,96.29629629629629,815.0,763.0,726.0,108.0,,,,,,,,,,,,,,,,,,,,,
AsXBOflrszVNKoFqbN61bMJqS0k2,wcst,244.0,,,,,,,,,,,,,,,,81.0,1.0,46.0,3.0,105.0,85.0,2025-11-06T10:55:40.944,77.14285714285715,6.0,20.0,19.0,10.0,,43.80952380952381,1.0,,-5.622895622895626,5.666666666666666,True,2.0,"[100, 76.47058823529412, 73.52941176470588, 86.66666666666667, 90.9090909090909, 55.55555555555556]"
Fz7EUjZCLuUBxLDUVtN6djaBTy42,prp,320.0,120.0,98.33333333333333,619.0,708.0,1191.0,1088.0,100.0,1137.0,889.0,,,,,,,,,,,,,,,,,,,,,,841.0,,,,,
Fz7EUjZCLuUBxLDUVtN6djaBTy42,stroop,174.0,,,,,,,,,,89.0,100.0,1032.0,984.0,943.0,108.0,,,,,,,,,,,,,,,,,,,,,
Fz7EUjZCLuUBxLDUVtN6djaBTy42,wcst,255.0,,,,,,,,,,,,,,,,66.0,4.0,25.0,10.0,84.0,70.0,2025-11-06T12:35:37.442,78.57142857142857,6.0,14.0,10.0,17.0,,29.761904761904763,0.0,,12.158538629126852,0.0,True,9.0,"[58.82352941176471, 83.33333333333334, 76.92307692307693, 83.33333333333334, 88.88888888888889, 83.33333333333334]"
DzB19GqCB7fyrlEPexogWkjFzEx2,prp,369.0,120.0,96.66666666666667,706.0,1029.0,1591.0,1401.0,95.0,1192.0,1252.0,,,,,,,,,,,,,,,,,,,,,,1515.0,,,,,
DzB19GqCB7fyrlEPexogWkjFzEx2,stroop,207.0,,,,,,,,,,181.0,98.14814814814815,1332.0,1243.0,1151.0,108.0,,,,,,,,,,,,,,,,,,,,,
DzB19GqCB7fyrlEPexogWkjFzEx2,wcst,222.0,,,,,,,,,,,,,,,,63.0,5.0,26.0,8.0,79.0,66.0,2025-11-10T18:49:44.868,79.74683544303798,6.0,13.0,8.0,15.0,,32.91139240506329,0.0,,9.523115773115762,0.3333333333333339,True,7.0,"[66.66666666666666, 76.92307692307693, 83.33333333333334, 81.25, 90.9090909090909, 83.33333333333334]"
WKzqsLX1lNVSdbGgYTTVGtFwsrF3,prp,367.0,120.0,97.5,903.0,1112.0,1549.0,1514.0,100.0,1117.0,1318.0,,,,,,,,,,,,,,,,,,,,,,1513.0,,,,,
WKzqsLX1lNVSdbGgYTTVGtFwsrF3,stroop,174.0,,,,,,,,,,91.0,100.0,1052.0,1006.0,961.0,108.0,,,,,,,,,,,,,,,,,,,,,
WKzqsLX1lNVSdbGgYTTVGtFwsrF3,wcst,259.0,,,,,,,,,,,,,,,,80.0,1.0,20.0,3.0,88.0,81.0,2025-11-06T15:18:59.850,90.9090909090909,6.0,7.0,6.0,10.0,,22.727272727272727,0.0,,-6.460423634336678,0.0,True,2.0,"[100, 90.9090909090909, 91.30434782608695, 76.92307692307693, 90.9090909090909, 95]"
xBGZhFOeypWnqzSQClkrwV9z2vF3,prp,345.0,120.0,97.5,699.0,1080.0,1556.0,1268.0,97.5,1067.0,1119.0,,,,,,,,,,,,,,,,,,,,,,1033.0,,,,,
xBGZhFOeypWnqzSQClkrwV9z2vF3,stroop,178.0,,,,,,,,,,208.0,100.0,1144.0,1035.0,936.0,108.0,,,,,,,,,,,,,,,,,,,,,
xBGZhFOeypWnqzSQClkrwV9z2vF3,wcst,180.0,,,,,,,,,,,,,,,,60.0,6.0,19.0,5.0,78.0,64.0,2025-11-06T15:32:56.331,76.92307692307693,6.0,14.0,8.0,12.0,,24.358974358974358,0.0,,-3.0303030303030454,-0.6666666666666679,True,4.0,"[83.33333333333334, 71.42857142857143, 83.33333333333334, 66.66666666666666, 71.42857142857143, 90.9090909090909]"
MMSYeiMQi3gMr4PrXQcpXzFiegj2,prp,357.0,120.0,97.5,793.0,1016.0,1577.0,1331.0,95.0,1261.0,1192.0,,,,,,,,,,,,,,,,,,,,,,1280.0,,,,,
MMSYeiMQi3gMr4PrXQcpXzFiegj2,stroop,185.0,,,,,,,,,,298.0,99.07407407407408,1222.0,1088.0,924.0,108.0,,,,,,,,,,,,,,,,,,,,,
MMSYeiMQi3gMr4PrXQcpXzFiegj2,wcst,282.0,,,,,,,,,,,,,,,,69.0,9.0,43.0,4.0,110.0,79.0,2025-11-06T23:16:58.560,62.727272727272734,6.0,31.0,22.0,17.0,,39.09090909090909,0.0,,5.500158596133829,-3.333333333333332,True,3.0,"[76.47058823529412, 83.33333333333334, 47.61904761904761, 42.10526315789473, 90.9090909090909, 90.9090909090909]"
tPxs1KmmX0ZKjHS9Nr63xoOPCRr2,prp,356.0,120.0,100.0,782.0,956.0,1572.0,1323.0,100.0,1244.0,1196.0,,,,,,,,,,,,,,,,,,,,,,1347.0,,,,,
tPxs1KmmX0ZKjHS9Nr63xoOPCRr2,stroop,162.0,,,,,,,,,,91.0,100.0,932.0,886.0,841.0,108.0,,,,,,,,,,,,,,,,,,,,,
tPxs1KmmX0ZKjHS9Nr63xoOPCRr2,wcst,203.0,,,,,,,,,,,,,,,,60.0,1.0,21.0,3.0,69.0,63.0,2025-11-07T00:18:10.781,86.95652173913044,6.0,6.0,5.0,10.0,,30.434782608695656,0.0,,-3.030303030303017,-0.33333333333333215,True,2.0,"[100, 90.9090909090909, 76.92307692307693, 76.92307692307693, 90.9090909090909, 90.9090909090909]"
y1EHXv8tUTa4BRS4fRio7bULYfA2,prp,365.0,120.0,95.83333333333333,853.0,1050.0,1748.0,1224.0,95.83333333333333,1080.0,1215.0,,,,,,,,,,,,,,,,,,,,,,1195.0,,,,,
y1EHXv8tUTa4BRS4fRio7bULYfA2,stroop,160.0,,,,,,,,,,176.0,100.0,943.0,859.0,767.0,108.0,,,,,,,,,,,,,,,,,,,,,
y1EHXv8tUTa4BRS4fRio7bULYfA2,wcst,297.0,,,,,,,,,,,,,,,,70.0,8.0,31.0,4.0,101.0,77.0,2025-11-07T13:55:07.509,69.3069306930693,6.0,24.0,16.0,18.0,,30.693069306930692,1.0,,0.1424501424501301,-1.0,True,3.0,"[77.77777777777779, 90.9090909090909, 50, 61.53846153846154, 90.9090909090909, 66.66666666666666]"
HyQM2xKwwuVfqidmRYF6TiRk90C2,prp,305.0,120.0,99.16666666666667,606.0,657.0,997.0,860.0,100.0,1086.0,786.0,,,,,,,,,,,,,,,,,,,,,,812.0,,,,,
HyQM2xKwwuVfqidmRYF6TiRk90C2,stroop,137.0,,,,,,,,,,43.0,100.0,679.0,651.0,636.0,108.0,,,,,,,,,,,,,,,,,,,,,
HyQM2xKwwuVfqidmRYF6TiRk90C2,wcst,183.0,,,,,,,,,,,,,,,,68.0,3.0,27.0,5.0,83.0,73.0,2025-11-08T14:28:56.313,81.92771084337349,6.0,10.0,7.0,12.0,,32.53012048192771,1.0,,0.09990009990011117,-3.0,True,4.0,"[83.33333333333334, 71.42857142857143, 90.9090909090909, 76.92307692307693, 83.33333333333334, 85.71428571428571]"
roaf78tUWxWSEjAUcUu8O7mrQbl1,prp,376.0,120.0,95.83333333333333,1005.0,1197.0,1348.0,1601.0,96.66666666666667,1276.0,1297.0,,,,,,,,,,,,,,,,,,,,,,1344.0,,,,,
roaf78tUWxWSEjAUcUu8O7mrQbl1,stroop,154.0,,,,,,,,,,101.0,100.0,870.0,800.0,769.0,108.0,,,,,,,,,,,,,,,,,,,,,
roaf78tUWxWSEjAUcUu8O7mrQbl1,wcst,233.0,,,,,,,,,,,,,,,,63.0,3.0,22.0,5.0,78.0,66.0,2025-11-08T14:36:53.047,80.76923076923077,6.0,12.0,9.0,12.0,,28.205128205128204,0.0,,-4.81283422459893,-2.0,True,4.0,"[83.33333333333334, 76.92307692307693, 90.9090909090909, 76.92307692307693, 76.47058823529412, 83.33333333333334]"
Rc706mP0TSeIoIpMYH1SpRXjOxA2,prp,350.0,120.0,96.66666666666667,665.0,1011.0,1301.0,1471.0,99.16666666666667,1015.0,1119.0,,,,,,,,,,,,,,,,,,,,,,1153.0,,,,,
Rc706mP0TSeIoIpMYH1SpRXjOxA2,stroop,172.0,,,,,,,,,,67.0,98.14814814814815,1040.0,978.0,972.0,108.0,,,,,,,,,,,,,,,,,,,,,
Rc706mP0TSeIoIpMYH1SpRXjOxA2,wcst,181.0,,,,,,,,,,,,,,,,60.0,0.0,13.0,3.0,61.0,60.0,2025-11-08T16:10:27.876,98.36065573770492,6.0,1.0,1.0,10.0,,21.311475409836063,0.0,,3.0303030303030454,0.3333333333333339,True,2.0,"[100, 90.9090909090909, 100, 100, 100, 100]"
i1tBstVkNiVP0qro7TgGD08IGGa2,prp,375.0,120.0,97.5,720.0,1186.0,1644.0,1395.0,98.33333333333333,1242.0,1266.0,,,,,,,,,,,,,,,,,,,,,,1395.0,,,,,
i1tBstVkNiVP0qro7TgGD08IGGa2,stroop,197.0,,,,,,,,,,140.0,98.14814814814815,1254.0,1187.0,1113.0,108.0,,,,,,,,,,,,,,,,,,,,,
i1tBstVkNiVP0qro7TgGD08IGGa2,wcst,244.0,,,,,,,,,,,,,,,,64.0,3.0,23.0,3.0,80.0,69.0,2025-11-08T18:42:26.288,80.0,6.0,11.0,8.0,15.0,,28.749999999999996,0.0,,-11.720779220779235,-0.6666666666666661,True,2.0,"[93.33333333333333, 83.33333333333334, 83.33333333333334, 90.9090909090909, 62.5, 71.42857142857143]"
h12a1QYNpYbl3T0Gj1PxUz3EnEx2,prp,341.0,120.0,95.0,687.0,1145.0,1335.0,1178.0,98.33333333333333,1310.0,1080.0,,,,,,,,,,,,,,,,,,,,,,1057.0,,,,,
h12a1QYNpYbl3T0Gj1PxUz3EnEx2,stroop,163.0,,,,,,,,,,320.0,96.29629629629629,1064.0,890.0,744.0,108.0,,,,,,,,,,,,,,,,,,,,,
h12a1QYNpYbl3T0Gj1PxUz3EnEx2,wcst,218.0,,,,,,,,,,,,,,,,60.0,4.0,19.0,7.0,72.0,64.0,2025-11-08T23:41:39.423,83.33333333333334,6.0,8.0,4.0,14.0,,26.38888888888889,0.0,,14.18581418581418,2.0,True,6.0,"[71.42857142857143, 83.33333333333334, 76.92307692307693, 100, 90.9090909090909, 83.33333333333334]"
uhq0lYdK12b2vJDJLS0EPTVe9nP2,stroop,164.0,,,,,,,,,,166.0,97.22222222222221,987.0,901.0,821.0,108.0,,,,,,,,,,,,,,,,,,,,,
wJPD2B4ZTJhCyUqGTwc8yJSKPPH2,prp,307.0,120.0,97.5,487.0,697.0,926.0,953.0,96.66666666666667,1236.0,780.0,,,,,,,,,,,,,,,,,,,,,,838.0,,,,,
wJPD2B4ZTJhCyUqGTwc8yJSKPPH2,stroop,151.0,,,,,,,,,,94.0,100.0,866.0,782.0,772.0,108.0,,,,,,,,,,,,,,,,,,,,,
iWsc4pghIEWOQUZKuQJMfe516UI3,prp,304.0,120.0,100.0,495.0,540.0,1025.0,1009.0,100.0,776.0,781.0,,,,,,,,,,,,,,,,,,,,,,840.0,,,,,
iWsc4pghIEWOQUZKuQJMfe516UI3,stroop,136.0,,,,,,,,,,133.0,98.14814814814815,712.0,643.0,579.0,108.0,,,,,,,,,,,,,,,,,,,,,
iWsc4pghIEWOQUZKuQJMfe516UI3,wcst,188.0,,,,,,,,,,,,,,,,67.0,5.0,22.0,8.0,80.0,69.0,2025-11-10T18:12:48.285,83.75,6.0,11.0,6.0,20.0,,27.500000000000004,0.0,,8.080808080808083,2.0,True,7.0,"[70, 90.9090909090909, 83.33333333333334, 90.9090909090909, 86.66666666666667, 90.9090909090909]"
lHDkoPQu5reNCO45npeYSS9eLQl1,prp,365.0,120.0,95.0,718.0,1152.0,1631.0,1476.0,98.33333333333333,1138.0,1261.0,,,,,,,,,,,,,,,,,,,,,,1321.0,,,,,
lHDkoPQu5reNCO45npeYSS9eLQl1,stroop,151.0,,,,,,,,,,108.0,98.14814814814815,851.0,776.0,743.0,108.0,,,,,,,,,,,,,,,,,,,,,
lHDkoPQu5reNCO45npeYSS9eLQl1,wcst,296.0,,,,,,,,,,,,,,,,60.0,19.0,34.0,23.0,109.0,74.0,2025-11-11T00:29:27.539,55.04587155963303,6.0,35.0,16.0,30.0,,31.19266055045872,0.0,,15.13116513116514,5.000000000000002,True,22.0,"[33.33333333333333, 55.55555555555556, 71.42857142857143, 83.33333333333334, 76.92307692307693, 45.45454545454545]"
WcTsIpSoEhYeIBSNjAbbdaNSBya2,prp,337.0,120.0,95.83333333333333,594.0,911.0,1263.0,1240.0,96.66666666666667,934.0,1032.0,,,,,,,,,,,,,,,,,,,,,,1147.0,,,,,
WcTsIpSoEhYeIBSNjAbbdaNSBya2,stroop,181.0,,,,,,,,,,6.0,100.0,1047.0,1054.0,1041.0,108.0,,,,,,,,,,,,,,,,,,,,,
WcTsIpSoEhYeIBSNjAbbdaNSBya2,wcst,264.0,,,,,,,,,,,,,,,,67.0,7.0,34.0,7.0,94.0,74.0,2025-11-11T11:33:39.435,71.27659574468085,6.0,20.0,13.0,14.0,,36.17021276595745,1.0,,16.75925925925926,0.6666666666666661,True,6.0,"[71.42857142857143, 55.55555555555556, 62.5, 71.42857142857143, 85, 83.33333333333334]"
mg2WZiRBn4NQDKiMK43Y8dBqyG53,prp,546.0,120.0,0.0,800.0,810.0,1295.0,1111.0,76.66666666666667,,1001.0,,,,,,,,,,,,,,,,,,,,,,1060.0,,,,,
mg2WZiRBn4NQDKiMK43Y8dBqyG53,stroop,152.0,,,,,,,,,,144.0,99.07407407407408,878.0,791.0,734.0,108.0,,,,,,,,,,,,,,,,,,,,,
mg2WZiRBn4NQDKiMK43Y8dBqyG53,wcst,283.0,,,,,,,,,,,,,,,,84.0,20.0,38.0,17.0,126.0,94.0,2025-11-11T14:26:36.592,66.66666666666666,6.0,32.0,12.0,34.0,,30.158730158730158,1.0,,1.5222250516368234,9.333333333333336,True,16.0,"[50, 77.27272727272727, 76.19047619047619, 71.42857142857143, 77.77777777777779, 58.82352941176471]"
AUKCfn4HzgVB7m6LNnh2gQb7G5s2,prp,340.0,120.0,99.16666666666667,654.0,950.0,1304.0,1347.0,98.33333333333333,1028.0,1067.0,,,,,,,,,,,,,,,,,,,,,,1062.0,,,,,
AUKCfn4HzgVB7m6LNnh2gQb7G5s2,stroop,170.0,,,,,,,,,,89.0,99.07407407407408,1022.0,954.0,933.0,108.0,,,,,,,,,,,,,,,,,,,,,
AUKCfn4HzgVB7m6LNnh2gQb7G5s2,wcst,272.0,,,,,,,,,,,,,,,,66.0,10.0,25.0,13.0,94.0,74.0,2025-11-11T20:30:08.051,70.2127659574468,6.0,20.0,10.0,20.0,,26.595744680851062,1.0,,23.90350877192983,2.666666666666666,True,12.0,"[50, 62.5, 66.66666666666666, 83.33333333333334, 84.21052631578947, 83.33333333333334]"
CtJe4bZZnYUBNrcPk00d3YQFSGp2,prp,363.0,120.0,100.0,773.0,1113.0,1621.0,1426.0,96.66666666666667,1058.0,1254.0,,,,,,,,,,,,,,,,,,,,,,1315.0,,,,,
CtJe4bZZnYUBNrcPk00d3YQFSGp2,stroop,153.0,,,,,,,,,,108.0,100.0,850.0,793.0,742.0,108.0,,,,,,,,,,,,,,,,,,,,,
CtJe4bZZnYUBNrcPk00d3YQFSGp2,wcst,204.0,,,,,,,,,,,,,,,,60.0,5.0,23.0,6.0,80.0,64.0,2025-11-11T21:59:29.008,75.0,6.0,16.0,11.0,13.0,,28.749999999999996,0.0,,1.2973137973138051,0.0,True,5.0,"[76.92307692307693, 71.42857142857143, 76.92307692307693, 62.5, 83.33333333333334, 83.33333333333334]"
CDEoAyvS8feXLKMKsaZah9agEhF3,prp,337.0,120.0,99.16666666666667,623.0,855.0,1361.0,1273.0,100.0,997.0,1051.0,,,,,,,,,,,,,,,,,,,,,,1145.0,,,,,
CDEoAyvS8feXLKMKsaZah9agEhF3,stroop,157.0,,,,,,,,,,194.0,100.0,940.0,838.0,746.0,108.0,,,,,,,,,,,,,,,,,,,,,
CDEoAyvS8feXLKMKsaZah9agEhF3,wcst,217.0,,,,,,,,,,,,,,,,60.0,0.0,20.0,3.0,68.0,62.0,2025-11-12T10:09:50.455,88.23529411764706,6.0,6.0,6.0,10.0,,29.411764705882355,0.0,,-10.217560217560205,-1.333333333333334,True,2.0,"[100, 90.9090909090909, 90.9090909090909, 90.9090909090909, 83.33333333333334, 76.92307692307693]"
GDZGRW51kbWtAdUIHCtEd8sAtqY2,prp,320.0,120.0,94.16666666666667,451.0,715.0,1248.0,1053.0,98.33333333333333,874.0,884.0,,,,,,,,,,,,,,,,,,,,,,974.0,,,,,
GDZGRW51kbWtAdUIHCtEd8sAtqY2,stroop,170.0,,,,,,,,,,-10.0,100.0,941.0,958.0,951.0,108.0,,,,,,,,,,,,,,,,,,,,,
GDZGRW51kbWtAdUIHCtEd8sAtqY2,wcst,256.0,,,,,,,,,,,,,,,,63.0,8.0,22.0,7.0,83.0,65.0,2025-11-12T13:00:11.853,75.90361445783132,6.0,18.0,10.0,20.0,,26.506024096385545,0.0,,-4.106449106449105,1.0,True,6.0,"[65, 83.33333333333334, 90.9090909090909, 83.33333333333334, 66.66666666666666, 76.92307692307693]"
QreA2rLiUhV3YHeMfuHMPdGbpJ53,prp,338.0,120.0,94.16666666666667,700.0,835.0,1321.0,1203.0,94.16666666666667,846.0,1056.0,,,,,,,,,,,,,,,,,,,,,,1210.0,,,,,
QreA2rLiUhV3YHeMfuHMPdGbpJ53,stroop,184.0,,,,,,,,,,334.0,97.22222222222221,1227.0,1087.0,893.0,108.0,,,,,,,,,,,,,,,,,,,,,
QreA2rLiUhV3YHeMfuHMPdGbpJ53,wcst,235.0,,,,,,,,,,,,,,,,69.0,10.0,29.0,14.0,95.0,74.0,2025-11-12T15:53:35.904,72.63157894736842,6.0,21.0,11.0,21.0,,30.526315789473685,1.0,,11.291819291819294,-0.9999999999999982,True,13.0,"[47.61904761904761, 71.42857142857143, 90.9090909090909, 76.92307692307693, 76, 90.9090909090909]"
AyAnuCaltBbpEYbudoyNzTvXlcC2,prp,438.0,120.0,65.0,1212.0,1289.0,1832.0,1694.0,69.16666666666667,1897.0,1526.0,,,,,,,,,,,,,,,,,,,,,,1624.0,,,,,
AyAnuCaltBbpEYbudoyNzTvXlcC2,stroop,177.0,,,,,,,,,,227.0,96.29629629629629,1153.0,1009.0,927.0,108.0,,,,,,,,,,,,,,,,,,,,,
AyAnuCaltBbpEYbudoyNzTvXlcC2,wcst,376.0,,,,,,,,,,,,,,,,78.0,13.0,29.0,13.0,112.0,86.0,2025-11-12T21:18:29.030,69.64285714285714,6.0,26.0,13.0,34.0,,25.892857142857146,1.0,,26.209411503529125,8.666666666666666,True,12.0,"[61.76470588235294, 45.45454545454545, 76.92307692307693, 90.9090909090909, 80.95238095238095, 90.9090909090909]"
azdL1gX79EVd9iepyCAVQrqIaQF3,prp,320.0,120.0,99.16666666666667,549.0,750.0,1192.0,1177.0,98.33333333333333,892.0,926.0,,,,,,,,,,,,,,,,,,,,,,967.0,,,,,
azdL1gX79EVd9iepyCAVQrqIaQF3,stroop,146.0,,,,,,,,,,67.0,98.14814814814815,796.0,743.0,729.0,108.0,,,,,,,,,,,,,,,,,,,,,
azdL1gX79EVd9iepyCAVQrqIaQF3,wcst,199.0,,,,,,,,,,,,,,,,67.0,4.0,22.0,4.0,81.0,69.0,2025-11-13T00:58:12.711,82.71604938271605,6.0,12.0,8.0,11.0,,27.160493827160494,1.0,,-14.041733120680476,0.33333333333333215,True,3.0,"[90.9090909090909, 89.47368421052632, 90.9090909090909, 62.5, 83.33333333333334, 83.33333333333334]"
jzdk8E3tVXTXIozlfK5oeEb7wWp2,prp,318.0,120.0,100.0,529.0,745.0,1184.0,976.0,95.83333333333333,708.0,890.0,,,,,,,,,,,,,,,,,,,,,,977.0,,,,,
jzdk8E3tVXTXIozlfK5oeEb7wWp2,stroop,163.0,,,,,,,,,,37.0,100.0,884.0,892.0,847.0,108.0,,,,,,,,,,,,,,,,,,,,,
jzdk8E3tVXTXIozlfK5oeEb7wWp2,wcst,182.0,,,,,,,,,,,,,,,,69.0,0.0,27.0,3.0,78.0,70.0,2025-11-13T16:49:44.370,88.46153846153845,6.0,8.0,8.0,10.0,,34.61538461538461,0.0,,-6.177156177156164,2.666666666666668,True,2.0,"[100, 86.36363636363636, 90.9090909090909, 90.9090909090909, 76.92307692307693, 90.9090909090909]"
