participantId,t2_stim,t1_resp,t1_stim,t1_correct,t2_correctResp,idx,t2_resp,t2_rt,t2_correct,t1_correctResp,soa,t1_rt,t2_resp_ms,participant_id,t1_rt_ms,t1_resp_ms,t2_onset_ms,task,block_index,t2_pressed_while_t1_pending,soa_nominal_ms,t1_timeout,t2_timeout,soa_measured_ms,response_order,t1_onset_ms,trial_index,t2_rt_ms
7QYZfcjgZHcVB941oHiLGGPTk7U2,blue,E,4,True,B,0,B,1652.3999999761581,True,E,50.0,1110.0,,,,,,,,,,,,,,,,
7QYZfcjgZHcVB941oHiLGGPTk7U2,red,O,7,True,R,1,R,751.1000000238419,True,O,1200.0,1031.2999999523163,,,,,,,,,,,,,,,,
7QYZfcjgZHcVB941oHiLGGPTk7U2,red,E,8,True,R,2,R,1884.0,True,E,150.0,1287.9000000953674,,,,,,,,,,,,,,,,
7QYZfcjgZHcVB941oHiLGGPTk7U2,red,O,9,True,R,3,R,1153.1000000238419,True,O,600.0,1112.5999999046326,,,,,,,,,,,,,,,,
7QYZfcjgZHcVB941oHiLGGPTk7U2,blue,O,9,True,B,4,B,1714.0,True,O,150.0,1226.6000000238419,,,,,,,,,,,,,,,,
7QYZfcjgZHcVB941oHiLGGPTk7U2,red,E,8,True,R,5,R,1785.3999999761581,True,E,150.0,1185.2000000476837,,,,,,,,,,,,,,,,
7QYZfcjgZHcVB941oHiLGGPTk7U2,red,E,4,True,R,6,R,1735.5,True,E,50.0,1054.5,,,,,,,,,,,,,,,,
7QYZfcjgZHcVB941oHiLGGPTk7U2,red,E,2,True,R,7,R,874.7999999523163,True,E,1200.0,1158.1999999284744,,,,,,,,,,,,,,,,
7QYZfcjgZHcVB941oHiLGGPTk7U2,blue,O,1,True,B,8,B,789.5,True,O,1200.0,1134.3999999761581,,,,,,,,,,,,,,,,
7QYZfcjgZHcVB941oHiLGGPTk7U2,red,O,3,True,R,9,R,1905.1999999284744,True,O,150.0,1577.1999999284744,,,,,,,,,,,,,,,,
7QYZfcjgZHcVB941oHiLGGPTk7U2,red,E,4,True,R,10,R,858.9000000953674,True,E,1200.0,972.0,,,,,,,,,,,,,,,,
7QYZfcjgZHcVB941oHiLGGPTk7U2,blue,E,2,True,B,11,B,869.1999999284744,True,E,1200.0,1256.9000000953674,,,,,,,,,,,,,,,,
7QYZfcjgZHcVB941oHiLGGPTk7U2,blue,E,6,True,B,12,B,2091.399999976158,True,E,50.0,1516.7000000476837,,,,,,,,,,,,,,,,
7QYZfcjgZHcVB941oHiLGGPTk7U2,red,O,3,True,R,13,R,1798.6000000238419,True,O,50.0,1300.8999999761581,,,,,,,,,,,,,,,,
7QYZfcjgZHcVB941oHiLGGPTk7U2,red,O,9,True,R,14,R,1714.1999999284744,True,O,50.0,1238.6999999284744,,,,,,,,,,,,,,,,
7QYZfcjgZHcVB941oHiLGGPTk7U2,blue,O,9,True,B,15,B,879.8000000715256,True,O,1200.0,1163.5999999046326,,,,,,,,,,,,,,,,
7QYZfcjgZHcVB941oHiLGGPTk7U2,red,O,7,True,R,16,R,1529.3999999761581,True,O,600.0,1486.0,,,,,,,,,,,,,,,,
7QYZfcjgZHcVB941oHiLGGPTk7U2,blue,O,3,True,B,17,B,1822.2000000476837,True,O,150.0,1317.8999999761581,,,,,,,,,,,,,,,,
7QYZfcjgZHcVB941oHiLGGPTk7U2,blue,O,7,True,B,18,B,1337.5,True,O,600.0,1483.0999999046326,,,,,,,,,,,,,,,,
7QYZfcjgZHcVB941oHiLGGPTk7U2,red,E,2,True,R,19,R,967.3000000715256,True,E,600.0,991.6999999284744,,,,,,,,,,,,,,,,
7QYZfcjgZHcVB941oHiLGGPTk7U2,red,E,2,True,R,20,R,1102.2000000476837,True,E,600.0,1183.4000000953674,,,,,,,,,,,,,,,,
7QYZfcjgZHcVB941oHiLGGPTk7U2,red,O,5,True,R,21,R,1430.8000000715256,True,O,150.0,902.0,,,,,,,,,,,,,,,,
7QYZfcjgZHcVB941oHiLGGPTk7U2,red,O,9,True,R,22,R,2108.0,True,O,150.0,1482.2999999523163,,,,,,,,,,,,,,,,
7QYZfcjgZHcVB941oHiLGGPTk7U2,red,E,8,True,R,23,R,1935.0,True,E,150.0,1301.6000000238419,,,,,,,,,,,,,,,,
7QYZfcjgZHcVB941oHiLGGPTk7U2,blue,E,4,True,B,24,B,952.8999999761581,True,E,1200.0,1379.2999999523163,,,,,,,,,,,,,,,,
7QYZfcjgZHcVB941oHiLGGPTk7U2,blue,O,9,True,B,25,B,928.6000000238419,True,O,600.0,834.7000000476837,,,,,,,,,,,,,,,,
7QYZfcjgZHcVB941oHiLGGPTk7U2,blue,E,6,True,B,26,B,1890.7999999523163,True,E,150.0,1369.0,,,,,,,,,,,,,,,,
7QYZfcjgZHcVB941oHiLGGPTk7U2,blue,O,3,True,B,27,B,1205.3000000715256,True,O,600.0,1165.8999999761581,,,,,,,,,,,,,,,,
7QYZfcjgZHcVB941oHiLGGPTk7U2,red,O,7,True,R,28,R,1496.5,True,O,50.0,1030.1000000238419,,,,,,,,,,,,,,,,
7QYZfcjgZHcVB941oHiLGGPTk7U2,red,E,4,True,R,29,R,1422.3999999761581,True,E,150.0,1149.4000000953674,,,,,,,,,,,,,,,,
7QYZfcjgZHcVB941oHiLGGPTk7U2,blue,O,3,True,B,30,B,1882.5,True,O,50.0,1325.3999999761581,,,,,,,,,,,,,,,,
7QYZfcjgZHcVB941oHiLGGPTk7U2,red,E,6,True,R,31,R,1671.2000000476837,True,E,1200.0,2502.7999999523163,,,,,,,,,,,,,,,,
7QYZfcjgZHcVB941oHiLGGPTk7U2,red,E,6,True,R,32,R,1561.1999999284744,True,E,50.0,1047.3999999761581,,,,,,,,,,,,,,,,
7QYZfcjgZHcVB941oHiLGGPTk7U2,red,O,5,True,R,33,R,771.7000000476837,True,O,1200.0,1012.3000000715256,,,,,,,,,,,,,,,,
7QYZfcjgZHcVB941oHiLGGPTk7U2,blue,O,5,True,B,34,B,1390.8999999761581,True,O,150.0,957.8000000715256,,,,,,,,,,,,,,,,
7QYZfcjgZHcVB941oHiLGGPTk7U2,blue,O,1,True,B,35,B,1391.3999999761581,True,O,150.0,983.8999999761581,,,,,,,,,,,,,,,,
7QYZfcjgZHcVB941oHiLGGPTk7U2,blue,O,5,True,B,36,B,1439.7999999523163,True,O,150.0,950.8999999761581,,,,,,,,,,,,,,,,
7QYZfcjgZHcVB941oHiLGGPTk7U2,blue,O,9,True,B,37,B,1735.6999999284744,True,O,50.0,1195.0,,,,,,,,,,,,,,,,
7QYZfcjgZHcVB941oHiLGGPTk7U2,red,O,9,True,R,38,R,1558.6000000238419,True,O,50.0,969.7999999523163,,,,,,,,,,,,,,,,
7QYZfcjgZHcVB941oHiLGGPTk7U2,red,E,2,True,R,39,R,1293.8999999761581,True,E,600.0,984.5999999046326,,,,,,,,,,,,,,,,
7QYZfcjgZHcVB941oHiLGGPTk7U2,red,E,4,True,R,40,R,2154.2000000476837,True,E,50.0,1452.6000000238419,,,,,,,,,,,,,,,,
7QYZfcjgZHcVB941oHiLGGPTk7U2,blue,E,2,True,B,41,B,1447.5,True,E,150.0,998.8000000715256,,,,,,,,,,,,,,,,
7QYZfcjgZHcVB941oHiLGGPTk7U2,blue,O,5,True,B,42,B,1602.1999999284744,True,O,50.0,932.5,,,,,,,,,,,,,,,,
7QYZfcjgZHcVB941oHiLGGPTk7U2,red,O,9,True,R,43,R,1522.6000000238419,True,O,150.0,1145.3000000715256,,,,,,,,,,,,,,,,
7QYZfcjgZHcVB941oHiLGGPTk7U2,blue,O,9,True,B,44,B,886.2999999523163,True,O,600.0,863.3999999761581,,,,,,,,,,,,,,,,
7QYZfcjgZHcVB941oHiLGGPTk7U2,blue,E,6,True,B,45,B,824.8000000715256,True,E,600.0,905.8000000715256,,,,,,,,,,,,,,,,
7QYZfcjgZHcVB941oHiLGGPTk7U2,blue,E,8,True,B,46,B,1859.8999999761581,True,E,50.0,1367.1999999284744,,,,,,,,,,,,,,,,
7QYZfcjgZHcVB941oHiLGGPTk7U2,blue,O,6,False,B,47,B,1567.7000000476837,True,E,1200.0,959.7000000476837,,,,,,,,,,,,,,,,
7QYZfcjgZHcVB941oHiLGGPTk7U2,red,E,4,True,R,48,R,1032.6000000238419,True,E,600.0,1089.4000000953674,,,,,,,,,,,,,,,,
7QYZfcjgZHcVB941oHiLGGPTk7U2,blue,O,9,True,B,49,B,834.7000000476837,True,O,1200.0,1283.0,,,,,,,,,,,,,,,,
7QYZfcjgZHcVB941oHiLGGPTk7U2,blue,E,6,True,B,50,B,1699.8999999761581,True,E,150.0,1233.3999999761581,,,,,,,,,,,,,,,,
7QYZfcjgZHcVB941oHiLGGPTk7U2,red,O,5,True,R,51,R,1178.7000000476837,True,O,600.0,1065.8999999761581,,,,,,,,,,,,,,,,
7QYZfcjgZHcVB941oHiLGGPTk7U2,blue,E,2,True,B,52,B,836.5,True,E,1200.0,1030.5,,,,,,,,,,,,,,,,
7QYZfcjgZHcVB941oHiLGGPTk7U2,blue,E,4,True,B,53,B,1506.7000000476837,True,E,600.0,1418.9000000953674,,,,,,,,,,,,,,,,
7QYZfcjgZHcVB941oHiLGGPTk7U2,red,E,2,True,R,54,R,902.7999999523163,True,E,600.0,912.3000000715256,,,,,,,,,,,,,,,,
7QYZfcjgZHcVB941oHiLGGPTk7U2,blue,E,6,True,B,55,B,1118.7000000476837,True,E,600.0,1084.7999999523163,,,,,,,,,,,,,,,,
7QYZfcjgZHcVB941oHiLGGPTk7U2,red,O,5,True,R,56,R,1072.8999999761581,True,O,600.0,1114.0,,,,,,,,,,,,,,,,
7QYZfcjgZHcVB941oHiLGGPTk7U2,red,O,9,True,R,57,R,822.2000000476837,True,O,1200.0,863.4000000953674,,,,,,,,,,,,,,,,
7QYZfcjgZHcVB941oHiLGGPTk7U2,blue,O,9,True,B,58,B,1713.0,True,O,50.0,987.0,,,,,,,,,,,,,,,,
7QYZfcjgZHcVB941oHiLGGPTk7U2,red,E,2,True,R,59,R,1570.0,True,E,50.0,1077.3999999761581,,,,,,,,,,,,,,,,
7QYZfcjgZHcVB941oHiLGGPTk7U2,blue,E,2,True,B,60,B,1411.8999999761581,True,E,50.0,905.1999999284744,,,,,,,,,,,,,,,,
7QYZfcjgZHcVB941oHiLGGPTk7U2,blue,E,6,True,B,61,B,935.9000000953674,True,E,600.0,905.2000000476837,,,,,,,,,,,,,,,,
7QYZfcjgZHcVB941oHiLGGPTk7U2,blue,E,2,True,B,62,B,1276.2000000476837,True,E,150.0,876.0,,,,,,,,,,,,,,,,
7QYZfcjgZHcVB941oHiLGGPTk7U2,red,E,2,True,R,63,R,800.7999999523163,True,E,1200.0,864.6000000238419,,,,,,,,,,,,,,,,
7QYZfcjgZHcVB941oHiLGGPTk7U2,red,E,8,True,R,64,R,760.5,True,E,600.0,881.3999999761581,,,,,,,,,,,,,,,,
7QYZfcjgZHcVB941oHiLGGPTk7U2,blue,O,9,True,B,65,B,994.0,True,O,1200.0,859.6000000238419,,,,,,,,,,,,,,,,
7QYZfcjgZHcVB941oHiLGGPTk7U2,red,O,7,True,R,66,R,1891.6999999284744,True,O,150.0,1370.6999999284744,,,,,,,,,,,,,,,,
7QYZfcjgZHcVB941oHiLGGPTk7U2,blue,E,2,True,B,67,B,844.2999999523163,True,E,1200.0,861.3000000715256,,,,,,,,,,,,,,,,
7QYZfcjgZHcVB941oHiLGGPTk7U2,blue,E,4,True,B,68,B,953.7999999523163,True,E,600.0,953.5,,,,,,,,,,,,,,,,
7QYZfcjgZHcVB941oHiLGGPTk7U2,red,O,3,True,R,69,R,1893.8999999761581,True,O,50.0,1409.3999999761581,,,,,,,,,,,,,,,,
7QYZfcjgZHcVB941oHiLGGPTk7U2,red,O,3,True,R,70,R,811.1999999284744,True,O,1200.0,892.6000000238419,,,,,,,,,,,,,,,,
7QYZfcjgZHcVB941oHiLGGPTk7U2,red,O,9,True,R,71,R,1641.6999999284744,True,O,600.0,1722.6000000238419,,,,,,,,,,,,,,,,
7QYZfcjgZHcVB941oHiLGGPTk7U2,blue,E,8,True,B,72,B,688.7000000476837,True,E,1200.0,932.2000000476837,,,,,,,,,,,,,,,,
7QYZfcjgZHcVB941oHiLGGPTk7U2,blue,O,9,True,B,73,B,1568.8999999761581,True,O,50.0,1060.8999999761581,,,,,,,,,,,,,,,,
7QYZfcjgZHcVB941oHiLGGPTk7U2,red,O,1,True,R,74,R,1657.5,True,O,50.0,1028.6999999284744,,,,,,,,,,,,,,,,
7QYZfcjgZHcVB941oHiLGGPTk7U2,blue,E,4,True,B,75,B,1443.5,True,E,50.0,895.0,,,,,,,,,,,,,,,,
7QYZfcjgZHcVB941oHiLGGPTk7U2,red,E,6,True,R,76,R,1735.7000000476837,True,E,150.0,1358.2000000476837,,,,,,,,,,,,,,,,
7QYZfcjgZHcVB941oHiLGGPTk7U2,blue,O,5,True,B,77,B,672.0999999046326,True,O,1200.0,963.1000000238419,,,,,,,,,,,,,,,,
7QYZfcjgZHcVB941oHiLGGPTk7U2,red,O,9,True,R,78,R,1008.1999999284744,True,O,1200.0,1024.4000000953674,,,,,,,,,,,,,,,,
7QYZfcjgZHcVB941oHiLGGPTk7U2,blue,O,9,True,B,79,B,1344.3999999761581,True,O,150.0,934.8000000715256,,,,,,,,,,,,,,,,
7QYZfcjgZHcVB941oHiLGGPTk7U2,blue,E,2,True,B,80,B,1361.3999999761581,True,E,150.0,1016.8000000715256,,,,,,,,,,,,,,,,
7QYZfcjgZHcVB941oHiLGGPTk7U2,red,E,6,True,R,81,R,1872.2999999523163,True,E,50.0,1382.8999999761581,,,,,,,,,,,,,,,,
7QYZfcjgZHcVB941oHiLGGPTk7U2,red,O,5,True,R,82,R,2073.100000023842,True,O,150.0,1168.3999999761581,,,,,,,,,,,,,,,,
7QYZfcjgZHcVB941oHiLGGPTk7U2,red,O,1,True,R,83,R,978.0,True,O,600.0,1052.0999999046326,,,,,,,,,,,,,,,,
7QYZfcjgZHcVB941oHiLGGPTk7U2,blue,O,5,True,B,84,B,1978.8000000715256,True,O,50.0,1360.2000000476837,,,,,,,,,,,,,,,,
7QYZfcjgZHcVB941oHiLGGPTk7U2,blue,O,3,True,B,85,B,840.5,True,O,600.0,976.5,,,,,,,,,,,,,,,,
7QYZfcjgZHcVB941oHiLGGPTk7U2,blue,O,3,True,B,86,B,758.9000000953674,True,O,600.0,922.8000000715256,,,,,,,,,,,,,,,,
7QYZfcjgZHcVB941oHiLGGPTk7U2,red,E,8,True,R,87,R,1217.2000000476837,True,E,1200.0,1128.8999999761581,,,,,,,,,,,,,,,,
7QYZfcjgZHcVB941oHiLGGPTk7U2,blue,E,6,True,B,88,R,2198.7999999523163,False,E,150.0,1253.6000000238419,,,,,,,,,,,,,,,,
7QYZfcjgZHcVB941oHiLGGPTk7U2,red,O,3,True,R,89,R,1068.4000000953674,True,O,1200.0,1270.4000000953674,,,,,,,,,,,,,,,,
7QYZfcjgZHcVB941oHiLGGPTk7U2,red,E,2,True,R,90,R,1709.0999999046326,True,E,150.0,1206.1999999284744,,,,,,,,,,,,,,,,
7QYZfcjgZHcVB941oHiLGGPTk7U2,blue,O,3,True,B,91,B,725.1000000238419,True,O,1200.0,981.2999999523163,,,,,,,,,,,,,,,,
7QYZfcjgZHcVB941oHiLGGPTk7U2,blue,E,2,True,B,92,B,1502.8999999761581,True,E,50.0,1093.3000000715256,,,,,,,,,,,,,,,,
7QYZfcjgZHcVB941oHiLGGPTk7U2,red,E,4,True,R,93,R,960.2000000476837,True,E,1200.0,1409.1000000238419,,,,,,,,,,,,,,,,
7QYZfcjgZHcVB941oHiLGGPTk7U2,red,E,2,True,R,94,R,2167.2999999523163,True,E,50.0,1315.1000000238419,,,,,,,,,,,,,,,,
7QYZfcjgZHcVB941oHiLGGPTk7U2,blue,E,4,True,B,95,B,1386.1000000238419,True,E,600.0,1444.5,,,,,,,,,,,,,,,,
CJINye92gDQlrSU7mv9XjlJBXo62,red,O,9,True,R,0,R,1037.0,True,O,150.0,881.0,,,,,,,,,,,,,,,,
CJINye92gDQlrSU7mv9XjlJBXo62,blue,O,5,True,B,1,B,754.0,True,O,1200.0,847.0,,,,,,,,,,,,,,,,
CJINye92gDQlrSU7mv9XjlJBXo62,blue,O,1,True,B,2,B,1265.0,True,O,50.0,868.0,,,,,,,,,,,,,,,,
CJINye92gDQlrSU7mv9XjlJBXo62,red,E,6,True,R,3,R,963.0,True,E,150.0,700.9999999998836,,,,,,,,,,,,,,,,
CJINye92gDQlrSU7mv9XjlJBXo62,red,E,8,True,R,4,R,682.0,True,E,600.0,844.0,,,,,,,,,,,,,,,,
CJINye92gDQlrSU7mv9XjlJBXo62,red,E,2,True,R,5,R,917.0,True,E,50.0,625.9999999998836,,,,,,,,,,,,,,,,
CJINye92gDQlrSU7mv9XjlJBXo62,blue,O,7,True,B,6,B,819.9999999998836,True,O,150.0,588.0,,,,,,,,,,,,,,,,
CJINye92gDQlrSU7mv9XjlJBXo62,red,O,9,True,R,7,R,672.0,True,O,300.0,691.0,,,,,,,,,,,,,,,,
CJINye92gDQlrSU7mv9XjlJBXo62,blue,O,9,True,B,8,B,699.0,True,O,600.0,627.0,,,,,,,,,,,,,,,,
CJINye92gDQlrSU7mv9XjlJBXo62,red,O,5,True,R,9,R,568.0,True,O,1200.0,601.0,,,,,,,,,,,,,,,,
CJINye92gDQlrSU7mv9XjlJBXo62,blue,O,1,True,B,10,B,1048.0,True,O,150.0,723.9999999998836,,,,,,,,,,,,,,,,
CJINye92gDQlrSU7mv9XjlJBXo62,blue,E,2,True,B,11,B,896.0,True,E,50.0,633.0,,,,,,,,,,,,,,,,
CJINye92gDQlrSU7mv9XjlJBXo62,red,E,8,True,R,12,R,846.0,True,E,150.0,660.0,,,,,,,,,,,,,,,,
CJINye92gDQlrSU7mv9XjlJBXo62,red,E,8,True,R,13,R,636.0,True,E,300.0,521.0,,,,,,,,,,,,,,,,
CJINye92gDQlrSU7mv9XjlJBXo62,blue,O,1,True,B,14,B,1034.0,True,O,300.0,777.0,,,,,,,,,,,,,,,,
CJINye92gDQlrSU7mv9XjlJBXo62,blue,O,1,True,B,15,B,1063.0,True,O,150.0,796.0,,,,,,,,,,,,,,,,
CJINye92gDQlrSU7mv9XjlJBXo62,red,O,9,True,R,16,R,1113.0,True,O,50.0,778.0,,,,,,,,,,,,,,,,
CJINye92gDQlrSU7mv9XjlJBXo62,red,E,6,True,R,17,R,730.0,True,E,300.0,591.0,,,,,,,,,,,,,,,,
CJINye92gDQlrSU7mv9XjlJBXo62,blue,O,5,True,B,18,B,1220.0,True,O,600.0,681.0,,,,,,,,,,,,,,,,
CJINye92gDQlrSU7mv9XjlJBXo62,red,O,3,True,R,19,R,789.0,True,O,300.0,699.9999999998836,,,,,,,,,,,,,,,,
CJINye92gDQlrSU7mv9XjlJBXo62,blue,E,2,True,B,20,B,575.0,True,E,600.0,683.0,,,,,,,,,,,,,,,,
CJINye92gDQlrSU7mv9XjlJBXo62,blue,E,6,True,B,21,B,1353.9999999998836,True,E,150.0,901.0,,,,,,,,,,,,,,,,
CJINye92gDQlrSU7mv9XjlJBXo62,red,O,1,True,R,22,R,1773.0,True,O,50.0,1102.0,,,,,,,,,,,,,,,,
CJINye92gDQlrSU7mv9XjlJBXo62,blue,O,7,True,B,23,B,720.0,True,O,600.0,902.0,,,,,,,,,,,,,,,,
CJINye92gDQlrSU7mv9XjlJBXo62,blue,E,6,True,B,24,B,658.9999999998836,True,E,1200.0,645.0,,,,,,,,,,,,,,,,
CJINye92gDQlrSU7mv9XjlJBXo62,blue,O,5,True,B,25,B,1167.0,True,O,300.0,945.0,,,,,,,,,,,,,,,,
CJINye92gDQlrSU7mv9XjlJBXo62,blue,O,3,True,B,26,B,1110.0,True,O,50.0,860.0,,,,,,,,,,,,,,,,
CJINye92gDQlrSU7mv9XjlJBXo62,red,O,3,True,R,27,R,760.0,True,O,150.0,694.0,,,,,,,,,,,,,,,,
CJINye92gDQlrSU7mv9XjlJBXo62,red,O,7,True,R,28,R,736.0,True,O,300.0,571.0,,,,,,,,,,,,,,,,
CJINye92gDQlrSU7mv9XjlJBXo62,blue,E,4,True,B,29,B,730.9999999998836,True,E,300.0,663.0,,,,,,,,,,,,,,,,
CJINye92gDQlrSU7mv9XjlJBXo62,red,E,4,True,R,30,R,1164.0,True,E,150.0,1029.0,,,,,,,,,,,,,,,,
CJINye92gDQlrSU7mv9XjlJBXo62,red,E,2,True,R,31,R,828.0,True,E,50.0,652.9999999998836,,,,,,,,,,,,,,,,
CJINye92gDQlrSU7mv9XjlJBXo62,red,O,3,True,R,32,R,878.9999999998836,True,O,50.0,698.0,,,,,,,,,,,,,,,,
CJINye92gDQlrSU7mv9XjlJBXo62,blue,O,6,False,B,33,B,1062.0,True,E,150.0,934.0,,,,,,,,,,,,,,,,
CJINye92gDQlrSU7mv9XjlJBXo62,blue,E,2,True,B,34,B,1489.0,True,E,50.0,885.0,,,,,,,,,,,,,,,,
CJINye92gDQlrSU7mv9XjlJBXo62,red,O,7,True,R,35,R,1031.0,True,O,50.0,762.0,,,,,,,,,,,,,,,,
CJINye92gDQlrSU7mv9XjlJBXo62,blue,E,4,True,B,36,B,980.0,True,E,150.0,797.0,,,,,,,,,,,,,,,,
CJINye92gDQlrSU7mv9XjlJBXo62,blue,O,7,True,B,37,B,1013.0,True,O,150.0,777.0,,,,,,,,,,,,,,,,
CJINye92gDQlrSU7mv9XjlJBXo62,red,E,6,True,R,38,R,809.0,True,E,300.0,627.0,,,,,,,,,,,,,,,,
CJINye92gDQlrSU7mv9XjlJBXo62,blue,E,8,True,B,39,B,859.0,True,E,300.0,769.0,,,,,,,,,,,,,,,,
CJINye92gDQlrSU7mv9XjlJBXo62,red,E,8,True,R,40,R,738.0,True,E,1200.0,732.9999999998836,,,,,,,,,,,,,,,,
CJINye92gDQlrSU7mv9XjlJBXo62,blue,E,8,True,B,41,B,1065.9999999998836,True,E,300.0,977.0,,,,,,,,,,,,,,,,
CJINye92gDQlrSU7mv9XjlJBXo62,red,O,5,True,R,42,R,664.0,True,O,600.0,677.0,,,,,,,,,,,,,,,,
CJINye92gDQlrSU7mv9XjlJBXo62,blue,E,8,True,B,43,B,1256.0,True,E,50.0,837.0,,,,,,,,,,,,,,,,
CJINye92gDQlrSU7mv9XjlJBXo62,red,E,8,True,R,44,R,675.0,True,E,600.0,652.0,,,,,,,,,,,,,,,,
CJINye92gDQlrSU7mv9XjlJBXo62,red,O,9,True,R,45,R,706.0,True,O,600.0,733.0,,,,,,,,,,,,,,,,
CJINye92gDQlrSU7mv9XjlJBXo62,red,E,5,False,R,46,R,2238.0,True,O,150.0,710.0,,,,,,,,,,,,,,,,
CJINye92gDQlrSU7mv9XjlJBXo62,red,O,3,True,R,47,R,597.0,True,O,1200.0,793.9999999998836,,,,,,,,,,,,,,,,
CJINye92gDQlrSU7mv9XjlJBXo62,blue,O,1,True,B,48,B,705.0,True,O,1200.0,926.0,,,,,,,,,,,,,,,,
CJINye92gDQlrSU7mv9XjlJBXo62,red,E,2,True,R,49,R,625.0,True,E,1200.0,702.0,,,,,,,,,,,,,,,,
CJINye92gDQlrSU7mv9XjlJBXo62,blue,O,5,True,B,50,B,715.0,True,O,1200.0,744.0,,,,,,,,,,,,,,,,
CJINye92gDQlrSU7mv9XjlJBXo62,blue,E,8,True,B,51,B,787.0,True,E,1200.0,612.9999999998836,,,,,,,,,,,,,,,,
CJINye92gDQlrSU7mv9XjlJBXo62,red,E,2,True,R,52,R,512.9999999998836,True,E,1200.0,579.0,,,,,,,,,,,,,,,,
CJINye92gDQlrSU7mv9XjlJBXo62,blue,O,7,True,B,53,B,1114.0,True,O,150.0,797.0,,,,,,,,,,,,,,,,
CJINye92gDQlrSU7mv9XjlJBXo62,red,E,6,True,R,54,R,1013.0,True,E,50.0,701.9999999998836,,,,,,,,,,,,,,,,
CJINye92gDQlrSU7mv9XjlJBXo62,red,O,5,True,R,55,R,775.0,True,O,300.0,653.0,,,,,,,,,,,,,,,,
CJINye92gDQlrSU7mv9XjlJBXo62,blue,E,6,True,B,56,B,587.0,True,E,1200.0,713.0,,,,,,,,,,,,,,,,
CJINye92gDQlrSU7mv9XjlJBXo62,red,O,3,True,R,57,R,622.0,True,O,1200.0,1078.0,,,,,,,,,,,,,,,,
CJINye92gDQlrSU7mv9XjlJBXo62,red,E,6,True,R,58,R,611.9999999998836,True,E,1200.0,663.0,,,,,,,,,,,,,,,,
CJINye92gDQlrSU7mv9XjlJBXo62,blue,E,6,True,B,59,B,1613.0,True,E,150.0,1117.0,,,,,,,,,,,,,,,,
CJINye92gDQlrSU7mv9XjlJBXo62,blue,O,5,True,B,60,B,1171.0,True,O,50.0,815.9999999998836,,,,,,,,,,,,,,,,
CJINye92gDQlrSU7mv9XjlJBXo62,blue,O,5,True,B,61,B,509.0,True,O,600.0,652.0,,,,,,,,,,,,,,,,
CJINye92gDQlrSU7mv9XjlJBXo62,red,O,1,True,R,62,R,399.0,True,O,1200.0,634.9999999998836,,,,,,,,,,,,,,,,
CJINye92gDQlrSU7mv9XjlJBXo62,red,E,6,True,R,63,R,757.0,True,E,300.0,592.0,,,,,,,,,,,,,,,,
CJINye92gDQlrSU7mv9XjlJBXo62,red,E,6,True,R,64,R,607.0,True,E,600.0,590.9999999998836,,,,,,,,,,,,,,,,
CJINye92gDQlrSU7mv9XjlJBXo62,red,E,8,True,R,65,R,520.0,True,E,600.0,670.9999999998836,,,,,,,,,,,,,,,,
CJINye92gDQlrSU7mv9XjlJBXo62,red,O,3,True,R,66,R,866.9999999998836,True,O,150.0,704.0,,,,,,,,,,,,,,,,
CJINye92gDQlrSU7mv9XjlJBXo62,blue,O,7,True,B,67,B,379.9999999998836,True,O,1200.0,829.0,,,,,,,,,,,,,,,,
CJINye92gDQlrSU7mv9XjlJBXo62,red,E,4,True,R,68,R,695.9999999998836,True,E,300.0,624.0,,,,,,,,,,,,,,,,
CJINye92gDQlrSU7mv9XjlJBXo62,blue,E,8,True,B,69,B,822.0,True,E,50.0,684.0,,,,,,,,,,,,,,,,
CJINye92gDQlrSU7mv9XjlJBXo62,red,O,9,True,R,70,R,1510.0,True,O,300.0,761.0,,,,,,,,,,,,,,,,
CJINye92gDQlrSU7mv9XjlJBXo62,red,O,9,True,R,71,R,281.0,True,O,1200.0,571.0,,,,,,,,,,,,,,,,
CJINye92gDQlrSU7mv9XjlJBXo62,red,E,2,True,R,72,R,709.0,True,E,300.0,677.0,,,,,,,,,,,,,,,,
CJINye92gDQlrSU7mv9XjlJBXo62,red,E,4,True,R,73,R,491.0,True,E,1200.0,551.0,,,,,,,,,,,,,,,,
CJINye92gDQlrSU7mv9XjlJBXo62,red,O,9,True,R,74,R,468.0,True,O,600.0,678.0,,,,,,,,,,,,,,,,
CJINye92gDQlrSU7mv9XjlJBXo62,blue,O,1,True,B,75,B,963.0,True,O,50.0,739.0,,,,,,,,,,,,,,,,
CJINye92gDQlrSU7mv9XjlJBXo62,blue,E,8,True,B,76,B,601.0,True,E,600.0,688.0,,,,,,,,,,,,,,,,
CJINye92gDQlrSU7mv9XjlJBXo62,red,E,2,True,R,77,R,1230.0,True,E,50.0,1034.0,,,,,,,,,,,,,,,,
CJINye92gDQlrSU7mv9XjlJBXo62,red,E,2,True,R,78,R,546.0,True,E,600.0,639.0,,,,,,,,,,,,,,,,
CJINye92gDQlrSU7mv9XjlJBXo62,blue,O,1,True,B,79,B,532.0,True,O,1200.0,699.0,,,,,,,,,,,,,,,,
CJINye92gDQlrSU7mv9XjlJBXo62,blue,O,5,True,B,80,B,658.0,True,O,600.0,831.0,,,,,,,,,,,,,,,,
CJINye92gDQlrSU7mv9XjlJBXo62,blue,O,1,True,B,81,B,855.0,True,O,300.0,779.9999999998836,,,,,,,,,,,,,,,,
CJINye92gDQlrSU7mv9XjlJBXo62,red,E,2,True,R,82,R,1012.0,True,E,150.0,659.0,,,,,,,,,,,,,,,,
CJINye92gDQlrSU7mv9XjlJBXo62,blue,E,4,True,B,83,B,851.0,True,E,300.0,727.0,,,,,,,,,,,,,,,,
CJINye92gDQlrSU7mv9XjlJBXo62,blue,O,3,True,B,84,B,1158.0,True,O,600.0,1119.0,,,,,,,,,,,,,,,,
CJINye92gDQlrSU7mv9XjlJBXo62,blue,E,8,True,B,85,B,751.0,True,E,600.0,890.0,,,,,,,,,,,,,,,,
CJINye92gDQlrSU7mv9XjlJBXo62,blue,O,3,True,B,86,B,1311.0,True,O,300.0,945.9999999998836,,,,,,,,,,,,,,,,
CJINye92gDQlrSU7mv9XjlJBXo62,red,E,4,True,R,87,R,752.0,True,E,600.0,749.0,,,,,,,,,,,,,,,,
CJINye92gDQlrSU7mv9XjlJBXo62,red,O,5,True,R,88,R,624.0,True,O,1200.0,757.0,,,,,,,,,,,,,,,,
CJINye92gDQlrSU7mv9XjlJBXo62,blue,E,1,False,B,89,B,1063.0,True,O,1200.0,753.0,,,,,,,,,,,,,,,,
CJINye92gDQlrSU7mv9XjlJBXo62,blue,E,4,True,B,90,B,1574.0,True,E,50.0,948.0,,,,,,,,,,,,,,,,
CJINye92gDQlrSU7mv9XjlJBXo62,red,E,2,True,R,91,R,2355.9999999998836,True,E,50.0,1220.0,,,,,,,,,,,,,,,,
CJINye92gDQlrSU7mv9XjlJBXo62,red,E,2,True,R,92,R,830.0,True,E,50.0,470.0,,,,,,,,,,,,,,,,
CJINye92gDQlrSU7mv9XjlJBXo62,blue,E,8,True,B,93,B,678.0,True,E,600.0,711.0,,,,,,,,,,,,,,,,
CJINye92gDQlrSU7mv9XjlJBXo62,red,O,3,True,R,94,R,795.0,True,O,600.0,879.0,,,,,,,,,,,,,,,,
CJINye92gDQlrSU7mv9XjlJBXo62,blue,E,4,True,B,95,B,1024.0,True,E,1200.0,1185.0,,,,,,,,,,,,,,,,
CJINye92gDQlrSU7mv9XjlJBXo62,red,O,3,True,R,96,R,788.0,True,O,300.0,664.0,,,,,,,,,,,,,,,,
CJINye92gDQlrSU7mv9XjlJBXo62,blue,E,8,True,B,97,B,1165.0,True,E,600.0,1088.9999999998836,,,,,,,,,,,,,,,,
CJINye92gDQlrSU7mv9XjlJBXo62,blue,E,4,True,B,98,B,1278.9999999998836,True,E,300.0,1022.0,,,,,,,,,,,,,,,,
CJINye92gDQlrSU7mv9XjlJBXo62,blue,E,2,True,B,99,B,1013.0,True,E,150.0,679.0,,,,,,,,,,,,,,,,
CJINye92gDQlrSU7mv9XjlJBXo62,blue,E,4,True,B,100,B,795.0,True,E,1200.0,896.0,,,,,,,,,,,,,,,,
CJINye92gDQlrSU7mv9XjlJBXo62,red,E,6,True,R,101,R,999.0,True,E,150.0,785.0,,,,,,,,,,,,,,,,
CJINye92gDQlrSU7mv9XjlJBXo62,red,E,6,True,R,102,R,1039.0,True,E,1200.0,786.0,,,,,,,,,,,,,,,,
CJINye92gDQlrSU7mv9XjlJBXo62,red,O,5,True,R,103,R,676.0,True,O,600.0,941.0,,,,,,,,,,,,,,,,
CJINye92gDQlrSU7mv9XjlJBXo62,blue,E,2,True,B,104,B,1667.0,True,E,50.0,1143.0,,,,,,,,,,,,,,,,
CJINye92gDQlrSU7mv9XjlJBXo62,red,O,5,True,R,105,R,1610.0,True,O,50.0,759.0,,,,,,,,,,,,,,,,
CJINye92gDQlrSU7mv9XjlJBXo62,blue,E,6,True,B,106,B,697.0,True,E,600.0,723.0,,,,,,,,,,,,,,,,
CJINye92gDQlrSU7mv9XjlJBXo62,red,E,4,True,R,107,R,1296.0,True,E,150.0,897.9999999998836,,,,,,,,,,,,,,,,
CJINye92gDQlrSU7mv9XjlJBXo62,blue,O,1,True,B,108,B,1335.0,True,O,300.0,845.0,,,,,,,,,,,,,,,,
CJINye92gDQlrSU7mv9XjlJBXo62,blue,E,6,True,B,109,B,1322.0,True,E,150.0,1014.0,,,,,,,,,,,,,,,,
CJINye92gDQlrSU7mv9XjlJBXo62,blue,O,1,True,B,110,B,1549.0,True,O,50.0,960.9999999998836,,,,,,,,,,,,,,,,
CJINye92gDQlrSU7mv9XjlJBXo62,red,O,3,True,R,111,R,2042.0,True,O,150.0,1148.0,,,,,,,,,,,,,,,,
CJINye92gDQlrSU7mv9XjlJBXo62,blue,E,8,True,B,112,B,1128.9999999998836,True,E,300.0,927.0,,,,,,,,,,,,,,,,
CJINye92gDQlrSU7mv9XjlJBXo62,red,O,5,True,R,113,R,1741.0,True,O,50.0,1156.0,,,,,,,,,,,,,,,,
CJINye92gDQlrSU7mv9XjlJBXo62,red,O,5,True,R,114,R,786.0,True,O,600.0,970.9999999998836,,,,,,,,,,,,,,,,
CJINye92gDQlrSU7mv9XjlJBXo62,red,O,3,True,R,115,R,1329.0,True,O,150.0,1077.0,,,,,,,,,,,,,,,,
CJINye92gDQlrSU7mv9XjlJBXo62,blue,O,7,True,B,116,B,1189.0,True,O,150.0,852.0,,,,,,,,,,,,,,,,
CJINye92gDQlrSU7mv9XjlJBXo62,blue,O,7,True,B,117,B,1085.0,True,O,300.0,917.0,,,,,,,,,,,,,,,,
CJINye92gDQlrSU7mv9XjlJBXo62,blue,E,4,True,B,118,B,487.0,True,E,1200.0,786.0,,,,,,,,,,,,,,,,
CJINye92gDQlrSU7mv9XjlJBXo62,blue,O,1,True,B,119,B,1786.0,True,O,50.0,1425.9999999998836,,,,,,,,,,,,,,,,
GE4hogtdLdTFbNasENgtm6SO3hC3,red,E,4,True,R,0,R,,True,E,,,1459919.7999999821,GE4hogtdLdTFbNasENgtm6SO3hC3,1781.0,1459412.0,1457702.2999999821,prp,,False,50.0,False,False,71.2999999821186,T1→T2,1457631.0,0.0,2217.5
GE4hogtdLdTFbNasENgtm6SO3hC3,red,O,9,True,R,1,R,,True,O,,,1462245.5,GE4hogtdLdTFbNasENgtm6SO3hC3,1052.5999999940395,1462002.2999999821,1461014.5,prp,,False,50.0,False,False,64.80000001192093,T1→T2,1460949.699999988,1.0,1231.0
GE4hogtdLdTFbNasENgtm6SO3hC3,blue,O,1,True,B,2,B,,True,O,,,1465244.0,GE4hogtdLdTFbNasENgtm6SO3hC3,1634.9000000059605,1464913.0,1463451.8999999762,prp,,False,150.0,False,False,173.7999999821186,T1→T2,1463278.099999994,2.0,1792.1000000238419
GE4hogtdLdTFbNasENgtm6SO3hC3,red,E,6,True,R,3,R,,True,E,,,1467540.099999994,GE4hogtdLdTFbNasENgtm6SO3hC3,818.0,1467086.2999999821,1466891.5,prp,,False,600.0,False,False,623.2000000178814,T1→T2,1466268.2999999821,3.0,648.5999999940395
GE4hogtdLdTFbNasENgtm6SO3hC3,blue,O,7,True,B,4,B,,True,O,,,1469779.099999994,GE4hogtdLdTFbNasENgtm6SO3hC3,851.0999999940395,1469426.7999999821,1468896.699999988,prp,,False,300.0,False,False,321.0,T1→T2,1468575.699999988,4.0,882.4000000059605
GE4hogtdLdTFbNasENgtm6SO3hC3,red,O,9,True,R,5,R,,True,O,,,1471942.2999999821,GE4hogtdLdTFbNasENgtm6SO3hC3,898.3000000119209,1471703.099999994,1471132.5,prp,,False,300.0,False,False,327.7000000178814,T1→T2,1470804.7999999821,5.0,809.7999999821186
GE4hogtdLdTFbNasENgtm6SO3hC3,blue,E,4,True,B,6,B,,True,E,,,1474142.7999999821,GE4hogtdLdTFbNasENgtm6SO3hC3,794.6999999880791,1473768.8999999762,1473585.199999988,prp,,False,600.0,False,False,611.0,T1→T2,1472974.199999988,6.0,557.5999999940395
GE4hogtdLdTFbNasENgtm6SO3hC3,red,E,4,True,R,7,R,,True,E,,,1476380.099999994,GE4hogtdLdTFbNasENgtm6SO3hC3,942.2999999821186,1476122.3999999762,1475497.0,prp,,False,300.0,False,False,316.90000000596046,T1→T2,1475180.099999994,7.0,883.0999999940395
GE4hogtdLdTFbNasENgtm6SO3hC3,blue,E,2,True,B,8,B,,True,E,,,1478773.699999988,GE4hogtdLdTFbNasENgtm6SO3hC3,840.9000000059605,1478245.7999999821,1478022.699999988,prp,,False,600.0,False,False,617.8000000119209,T1→T2,1477404.8999999762,8.0,751.0
GE4hogtdLdTFbNasENgtm6SO3hC3,blue,O,3,True,B,9,B,,True,O,,,1481814.2999999821,GE4hogtdLdTFbNasENgtm6SO3hC3,1728.0999999940395,1481530.599999994,1481015.5,prp,,False,1200.0,False,False,1213.0,T1→T2,1479802.5,9.0,798.7999999821186
GE4hogtdLdTFbNasENgtm6SO3hC3,blue,O,1,True,B,10,B,,True,O,,,1483886.2999999821,GE4hogtdLdTFbNasENgtm6SO3hC3,761.5999999940395,1483607.7999999821,1482917.0,prp,,False,50.0,False,False,70.80000001192093,T1→T2,1482846.199999988,10.0,969.2999999821186
GE4hogtdLdTFbNasENgtm6SO3hC3,blue,O,9,True,B,11,B,,True,O,,,1485834.199999988,GE4hogtdLdTFbNasENgtm6SO3hC3,659.4000000059605,1485571.7999999821,1484984.099999994,prp,,False,50.0,False,False,71.7000000178814,T1→T2,1484912.3999999762,11.0,850.0999999940395
GE4hogtdLdTFbNasENgtm6SO3hC3,blue,O,3,True,B,12,B,,True,O,,,1487799.8999999762,GE4hogtdLdTFbNasENgtm6SO3hC3,690.2999999821186,1487550.3999999762,1487035.3999999762,prp,,False,150.0,False,False,175.2999999821186,T1→T2,1486860.099999994,12.0,764.5
GE4hogtdLdTFbNasENgtm6SO3hC3,blue,E,4,True,B,13,B,,True,E,,,1489714.8999999762,GE4hogtdLdTFbNasENgtm6SO3hC3,663.5,1489485.3999999762,1488899.599999994,prp,,False,50.0,False,False,77.7000000178814,T1→T2,1488821.8999999762,13.0,815.2999999821186
GE4hogtdLdTFbNasENgtm6SO3hC3,red,O,5,True,R,14,R,,True,O,,,1492858.5,GE4hogtdLdTFbNasENgtm6SO3hC3,1058.0,1491795.2999999821,1491967.0,prp,,False,1200.0,False,False,1229.7000000178814,T1→T2,1490737.2999999821,14.0,891.5
GE4hogtdLdTFbNasENgtm6SO3hC3,red,E,8,True,R,15,R,,True,E,,,1495357.2999999821,GE4hogtdLdTFbNasENgtm6SO3hC3,1141.0,1495036.199999988,1494068.7999999821,prp,,False,150.0,False,False,173.59999999403954,T1→T2,1493895.199999988,15.0,1288.5
GE4hogtdLdTFbNasENgtm6SO3hC3,blue,E,8,True,B,16,B,,True,E,,,1497470.699999988,GE4hogtdLdTFbNasENgtm6SO3hC3,859.6999999880791,1497230.2999999821,1496680.599999994,prp,,False,300.0,False,False,310.0,T1→T2,1496370.599999994,16.0,790.0999999940395
GE4hogtdLdTFbNasENgtm6SO3hC3,blue,O,7,True,B,17,B,,True,O,,,1500537.2999999821,GE4hogtdLdTFbNasENgtm6SO3hC3,1683.0,1500189.2999999821,1499722.2999999821,prp,,False,1200.0,False,False,1216.0,T1→T2,1498506.2999999821,17.0,815.0
GE4hogtdLdTFbNasENgtm6SO3hC3,blue,E,8,True,B,18,B,,True,E,,,1502856.099999994,GE4hogtdLdTFbNasENgtm6SO3hC3,949.4000000059605,1502509.699999988,1502168.0,prp,,False,600.0,False,False,607.7000000178814,T1→T2,1501560.2999999821,18.0,688.0999999940395
GE4hogtdLdTFbNasENgtm6SO3hC3,red,O,5,True,R,19,R,,True,O,,,1505222.099999994,GE4hogtdLdTFbNasENgtm6SO3hC3,999.1999999880791,1504881.8999999762,1504501.8999999762,prp,,False,600.0,False,False,619.1999999880791,T1→T2,1503882.699999988,19.0,720.2000000178814
GE4hogtdLdTFbNasENgtm6SO3hC3,red,E,4,True,R,20,R,,True,E,,,1507230.599999994,GE4hogtdLdTFbNasENgtm6SO3hC3,716.7000000178814,1506966.099999994,1506315.199999988,prp,,False,50.0,False,False,65.80000001192093,T1→T2,1506249.3999999762,20.0,915.4000000059605
GE4hogtdLdTFbNasENgtm6SO3hC3,red,E,6,True,R,21,R,,True,E,,,1509496.5,GE4hogtdLdTFbNasENgtm6SO3hC3,917.1000000238419,1509165.5,1508866.3999999762,prp,,False,600.0,False,False,618.0,T1→T2,1508248.3999999762,21.0,630.1000000238419
GE4hogtdLdTFbNasENgtm6SO3hC3,red,E,2,True,R,22,R,,True,E,,,1511354.7999999821,GE4hogtdLdTFbNasENgtm6SO3hC3,641.4000000059605,1511173.2999999821,1510716.7999999821,prp,,False,150.0,False,False,184.90000000596046,T1→T2,1510531.8999999762,22.0,638.0
GE4hogtdLdTFbNasENgtm6SO3hC3,blue,O,7,True,B,23,B,,True,O,,,1513603.2999999821,GE4hogtdLdTFbNasENgtm6SO3hC3,1019.5,1513390.8999999762,1512982.699999988,prp,,False,600.0,False,False,611.3000000119209,T1→T2,1512371.3999999762,23.0,620.5999999940395
GE4hogtdLdTFbNasENgtm6SO3hC3,blue,O,9,True,B,24,B,,True,O,,,1515556.5,GE4hogtdLdTFbNasENgtm6SO3hC3,685.9000000059605,1515315.699999988,1514702.8999999762,prp,,False,50.0,False,False,73.09999999403954,T1→T2,1514629.7999999821,24.0,853.6000000238419
GE4hogtdLdTFbNasENgtm6SO3hC3,blue,E,4,True,B,25,B,,True,E,,,1517470.0,GE4hogtdLdTFbNasENgtm6SO3hC3,764.3999999761581,1517358.8999999762,1516768.8999999762,prp,,False,150.0,False,False,174.39999997615814,T1→T2,1516594.5,25.0,701.1000000238419
GE4hogtdLdTFbNasENgtm6SO3hC3,red,E,4,True,R,26,R,,True,E,,,1519468.3999999762,GE4hogtdLdTFbNasENgtm6SO3hC3,895.6999999880791,1519387.699999988,1518570.2999999821,prp,,False,50.0,False,False,78.2999999821186,T1→T2,1518492.0,26.0,898.0999999940395
GE4hogtdLdTFbNasENgtm6SO3hC3,red,O,1,True,R,27,R,,True,O,,,1522236.699999988,GE4hogtdLdTFbNasENgtm6SO3hC3,1620.2999999821186,1522120.8999999762,1521708.8999999762,prp,,False,1200.0,False,False,1208.2999999821186,T1→T2,1520500.599999994,27.0,527.8000000119209
GE4hogtdLdTFbNasENgtm6SO3hC3,blue,O,3,True,B,28,B,,True,O,,,1524285.3999999762,GE4hogtdLdTFbNasENgtm6SO3hC3,919.9000000059605,1524186.099999994,1523576.3999999762,prp,,False,300.0,False,False,310.19999998807907,T1→T2,1523266.199999988,28.0,709.0
GE4hogtdLdTFbNasENgtm6SO3hC3,blue,E,6,True,B,29,B,,True,E,,,1527152.7999999821,GE4hogtdLdTFbNasENgtm6SO3hC3,1727.199999988079,1527048.199999988,1526537.699999988,prp,,False,1200.0,False,False,1216.699999988079,T1→T2,1525321.0,29.0,615.0999999940395
GE4hogtdLdTFbNasENgtm6SO3hC3,blue,O,1,True,B,30,B,,True,O,,,1540036.3999999762,GE4hogtdLdTFbNasENgtm6SO3hC3,1649.300000011921,1539836.199999988,1539397.599999994,prp,,False,1200.0,False,False,1210.7000000178814,T1→T2,1538186.8999999762,30.0,638.7999999821186
GE4hogtdLdTFbNasENgtm6SO3hC3,red,O,1,True,R,31,R,,True,O,,,1542405.3999999762,GE4hogtdLdTFbNasENgtm6SO3hC3,1087.4000000059605,1542156.0,1541249.699999988,prp,,False,150.0,False,False,181.09999999403954,T1→T2,1541068.599999994,31.0,1155.699999988079
GE4hogtdLdTFbNasENgtm6SO3hC3,red,E,2,True,R,32,R,,True,E,,,1544617.7999999821,GE4hogtdLdTFbNasENgtm6SO3hC3,1028.0999999940395,1544468.199999988,1543747.0,prp,,False,300.0,False,False,306.90000000596046,T1→T2,1543440.099999994,32.0,870.7999999821186
GE4hogtdLdTFbNasENgtm6SO3hC3,blue,O,1,True,B,33,B,,True,O,,,1546809.0,GE4hogtdLdTFbNasENgtm6SO3hC3,1020.6999999880791,1546672.199999988,1545720.199999988,prp,,False,50.0,False,False,68.69999998807907,T1→T2,1545651.5,33.0,1088.800000011921
GE4hogtdLdTFbNasENgtm6SO3hC3,red,E,2,True,R,34,R,,True,E,,,1548890.599999994,GE4hogtdLdTFbNasENgtm6SO3hC3,924.7000000178814,1548768.599999994,1547920.099999994,prp,,False,50.0,False,False,76.2000000178814,T1→T2,1547843.8999999762,34.0,970.5
GE4hogtdLdTFbNasENgtm6SO3hC3,blue,O,1,True,B,35,B,,True,O,,,1551411.2999999821,GE4hogtdLdTFbNasENgtm6SO3hC3,618.8000000119209,1550535.199999988,1550529.599999994,prp,,False,600.0,False,False,613.2000000178814,T1→T2,1549916.3999999762,35.0,881.6999999880791
GE4hogtdLdTFbNasENgtm6SO3hC3,blue,E,4,True,B,36,B,,True,E,,,1553600.8999999762,GE4hogtdLdTFbNasENgtm6SO3hC3,611.0999999940395,1553056.699999988,1553078.2999999821,prp,,False,600.0,False,False,632.6999999880791,T1→T2,1552445.599999994,36.0,522.5999999940395
GE4hogtdLdTFbNasENgtm6SO3hC3,red,O,5,True,R,37,R,,True,O,,,1555537.199999988,GE4hogtdLdTFbNasENgtm6SO3hC3,779.5,1555405.5,1554803.3999999762,prp,,False,150.0,False,False,177.39999997615814,T1→T2,1554626.0,37.0,733.8000000119209
GE4hogtdLdTFbNasENgtm6SO3hC3,red,E,8,True,R,38,R,,True,E,,,1558209.7999999821,GE4hogtdLdTFbNasENgtm6SO3hC3,742.2999999821186,1557312.7999999821,1557783.699999988,prp,,False,1200.0,False,False,1213.199999988079,T1→T2,1556570.5,38.0,426.09999999403954
GE4hogtdLdTFbNasENgtm6SO3hC3,blue,E,2,True,B,39,B,,True,E,,,1560437.7999999821,GE4hogtdLdTFbNasENgtm6SO3hC3,981.1999999880791,1560219.7999999821,1559415.2999999821,prp,,False,150.0,False,False,176.69999998807907,T1→T2,1559238.599999994,39.0,1022.5
GE4hogtdLdTFbNasENgtm6SO3hC3,red,E,2,True,R,40,R,,True,E,,,1562551.8999999762,GE4hogtdLdTFbNasENgtm6SO3hC3,980.9000000059605,1562443.199999988,1561638.0,prp,,False,150.0,False,False,175.7000000178814,T1→T2,1561462.2999999821,40.0,913.8999999761581
GE4hogtdLdTFbNasENgtm6SO3hC3,red,O,9,True,R,41,R,,True,O,,,1564840.8999999762,GE4hogtdLdTFbNasENgtm6SO3hC3,1127.7999999821186,1564698.3999999762,1563883.2999999821,prp,,False,300.0,False,False,312.69999998807907,T1→T2,1563570.599999994,41.0,957.5999999940395
GE4hogtdLdTFbNasENgtm6SO3hC3,blue,O,1,True,B,42,B,,True,O,,,1567151.2999999821,GE4hogtdLdTFbNasENgtm6SO3hC3,1114.800000011921,1566981.599999994,1566481.2999999821,prp,,False,600.0,False,False,614.5,T1→T2,1565866.7999999821,42.0,670.0
GE4hogtdLdTFbNasENgtm6SO3hC3,red,E,6,True,R,43,R,,True,E,,,1569955.0,GE4hogtdLdTFbNasENgtm6SO3hC3,1662.0999999940395,1569840.2999999821,1568353.099999994,prp,,False,150.0,False,False,174.90000000596046,T1→T2,1568178.199999988,43.0,1601.9000000059605
GE4hogtdLdTFbNasENgtm6SO3hC3,blue,E,6,True,B,44,B,,True,E,,,1571890.5,GE4hogtdLdTFbNasENgtm6SO3hC3,779.5,1571744.8999999762,1571137.199999988,prp,,False,150.0,False,False,171.80000001192093,T1→T2,1570965.3999999762,44.0,753.3000000119209
GE4hogtdLdTFbNasENgtm6SO3hC3,blue,E,4,True,B,45,B,,True,E,,,1573906.599999994,GE4hogtdLdTFbNasENgtm6SO3hC3,844.5999999940395,1573757.3999999762,1573086.5,prp,,False,150.0,False,False,173.7000000178814,T1→T2,1572912.7999999821,45.0,820.0999999940395
GE4hogtdLdTFbNasENgtm6SO3hC3,red,O,1,True,R,46,R,,True,O,,,1575906.7999999821,GE4hogtdLdTFbNasENgtm6SO3hC3,812.1000000238419,1575752.5,1575022.2999999821,prp,,False,50.0,False,False,81.90000000596046,T1→T2,1574940.3999999762,46.0,884.5
GE4hogtdLdTFbNasENgtm6SO3hC3,red,E,4,True,R,47,R,,True,E,,,1578103.0,GE4hogtdLdTFbNasENgtm6SO3hC3,992.2000000178814,1577932.5,1577118.199999988,prp,,False,150.0,False,False,177.90000000596046,T1→T2,1576940.2999999821,47.0,984.8000000119209
GE4hogtdLdTFbNasENgtm6SO3hC3,blue,E,2,True,B,48,B,,True,E,,,1581175.099999994,GE4hogtdLdTFbNasENgtm6SO3hC3,1784.0,1580914.599999994,1579447.3999999762,prp,,False,300.0,False,False,316.7999999821186,T1→T2,1579130.599999994,48.0,1727.7000000178814
GE4hogtdLdTFbNasENgtm6SO3hC3,blue,E,8,True,B,49,B,,True,E,,,1584035.599999994,GE4hogtdLdTFbNasENgtm6SO3hC3,1610.5,1583809.199999988,1583415.0,prp,,False,1200.0,False,False,1216.300000011921,T1→T2,1582198.699999988,49.0,620.5999999940395
GE4hogtdLdTFbNasENgtm6SO3hC3,blue,O,7,True,B,50,B,,True,O,,,1586424.7999999821,GE4hogtdLdTFbNasENgtm6SO3hC3,1142.0,1586206.2999999821,1585386.599999994,prp,,False,300.0,False,False,322.30000001192093,T1→T2,1585064.2999999821,50.0,1038.199999988079
GE4hogtdLdTFbNasENgtm6SO3hC3,blue,E,6,True,B,51,B,,True,E,,,1589228.099999994,GE4hogtdLdTFbNasENgtm6SO3hC3,1096.5999999940395,1588549.2999999821,1588667.3999999762,prp,,False,1200.0,False,False,1214.699999988079,T1→T2,1587452.699999988,51.0,560.7000000178814
GE4hogtdLdTFbNasENgtm6SO3hC3,blue,O,9,True,B,52,B,,True,O,,,1591519.599999994,GE4hogtdLdTFbNasENgtm6SO3hC3,1052.9000000059605,1591312.699999988,1590880.3999999762,prp,,False,600.0,False,False,620.5999999940395,T1→T2,1590259.7999999821,52.0,639.2000000178814
GE4hogtdLdTFbNasENgtm6SO3hC3,blue,O,9,True,B,53,B,,True,O,,,1593504.699999988,GE4hogtdLdTFbNasENgtm6SO3hC3,774.0999999940395,1593321.2999999821,1592854.3999999762,prp,,False,300.0,False,False,307.19999998807907,T1→T2,1592547.199999988,53.0,650.3000000119209
GE4hogtdLdTFbNasENgtm6SO3hC3,blue,O,5,True,B,54,B,,True,O,,,1595709.2999999821,GE4hogtdLdTFbNasENgtm6SO3hC3,984.3000000119209,1595523.199999988,1595156.8999999762,prp,,False,600.0,False,False,618.0,T1→T2,1594538.8999999762,54.0,552.4000000059605
GE4hogtdLdTFbNasENgtm6SO3hC3,blue,E,6,True,B,55,B,,True,E,,,1597841.599999994,GE4hogtdLdTFbNasENgtm6SO3hC3,943.0999999940395,1597689.2999999821,1597065.8999999762,prp,,False,300.0,False,False,319.69999998807907,T1→T2,1596746.199999988,55.0,775.7000000178814
GE4hogtdLdTFbNasENgtm6SO3hC3,red,O,7,True,R,56,R,,True,O,,,1600775.699999988,GE4hogtdLdTFbNasENgtm6SO3hC3,1693.9000000059605,1600562.199999988,1600079.599999994,prp,,False,1200.0,False,False,1211.300000011921,T1→T2,1598868.2999999821,56.0,696.0999999940395
GE4hogtdLdTFbNasENgtm6SO3hC3,red,O,5,True,R,57,R,,True,O,,,1603491.5,GE4hogtdLdTFbNasENgtm6SO3hC3,1551.699999988079,1603354.7999999821,1602411.099999994,prp,,False,600.0,False,False,608.0,T1→T2,1601803.099999994,57.0,1080.4000000059605
GE4hogtdLdTFbNasENgtm6SO3hC3,red,E,8,True,R,58,R,,True,E,,,1605800.599999994,GE4hogtdLdTFbNasENgtm6SO3hC3,1079.5999999940395,1605596.099999994,1605135.0,prp,,False,600.0,False,False,618.5,T1→T2,1604516.5,58.0,665.5999999940395
GE4hogtdLdTFbNasENgtm6SO3hC3,blue,E,4,True,B,59,B,,True,E,,,1608591.2999999821,GE4hogtdLdTFbNasENgtm6SO3hC3,1606.9000000059605,1608443.599999994,1608050.699999988,prp,,False,1200.0,False,False,1214.0,T1→T2,1606836.699999988,59.0,540.5999999940395
GE4hogtdLdTFbNasENgtm6SO3hC3,red,E,6,True,R,60,R,,True,E,,,1620772.599999994,GE4hogtdLdTFbNasENgtm6SO3hC3,1054.800000011921,1620670.699999988,1619689.599999994,prp,,False,50.0,False,False,73.7000000178814,T1→T2,1619615.8999999762,60.0,1083.0
GE4hogtdLdTFbNasENgtm6SO3hC3,blue,E,8,True,B,61,B,,True,E,,,1623082.699999988,GE4hogtdLdTFbNasENgtm6SO3hC3,1162.7000000178814,1622960.099999994,1622413.699999988,prp,,False,600.0,False,False,616.3000000119209,T1→T2,1621797.3999999762,61.0,669.0
GE4hogtdLdTFbNasENgtm6SO3hC3,red,O,5,True,R,62,R,,True,O,,,1625057.8999999762,GE4hogtdLdTFbNasENgtm6SO3hC3,805.0999999940395,1624911.2999999821,1624429.8999999762,prp,,False,300.0,False,False,323.69999998807907,T1→T2,1624106.199999988,62.0,628.0
GE4hogtdLdTFbNasENgtm6SO3hC3,red,E,6,True,R,63,R,,True,E,,,1627241.3999999762,GE4hogtdLdTFbNasENgtm6SO3hC3,1018.8999999761581,1627115.3999999762,1626421.099999994,prp,,False,300.0,False,False,324.59999999403954,T1→T2,1626096.5,63.0,820.2999999821186
GE4hogtdLdTFbNasENgtm6SO3hC3,blue,E,4,True,B,64,B,,True,E,,,1629368.3999999762,GE4hogtdLdTFbNasENgtm6SO3hC3,971.9000000059605,1629244.099999994,1628894.5,prp,,False,600.0,False,False,622.3000000119209,T1→T2,1628272.199999988,64.0,473.89999997615814
GE4hogtdLdTFbNasENgtm6SO3hC3,blue,E,4,True,B,65,B,,True,E,,,1631106.099999994,GE4hogtdLdTFbNasENgtm6SO3hC3,583.0,1630972.599999994,1630468.699999988,prp,,False,50.0,False,False,79.09999999403954,T1→T2,1630389.599999994,65.0,637.4000000059605
GE4hogtdLdTFbNasENgtm6SO3hC3,blue,O,9,True,B,66,B,,True,O,,,1633988.7999999821,GE4hogtdLdTFbNasENgtm6SO3hC3,1689.5,1633822.099999994,1633365.699999988,prp,,False,1200.0,False,False,1233.0999999940395,T1→T2,1632132.599999994,66.0,623.0999999940395
GE4hogtdLdTFbNasENgtm6SO3hC3,red,E,6,True,R,67,R,,True,E,,,1637088.199999988,GE4hogtdLdTFbNasENgtm6SO3hC3,1936.7999999821186,1636952.2999999821,1636232.699999988,prp,,False,1200.0,False,False,1217.199999988079,T1→T2,1635015.5,67.0,855.5
GE4hogtdLdTFbNasENgtm6SO3hC3,red,E,6,True,R,68,R,,True,E,,,1639224.699999988,GE4hogtdLdTFbNasENgtm6SO3hC3,959.6999999880791,1639080.3999999762,1638742.2999999821,prp,,False,600.0,False,False,621.5999999940395,T1→T2,1638120.699999988,68.0,482.40000000596046
GE4hogtdLdTFbNasENgtm6SO3hC3,blue,O,1,True,B,69,R,,False,O,,,1641237.3999999762,GE4hogtdLdTFbNasENgtm6SO3hC3,861.7000000178814,1641109.099999994,1640418.2999999821,prp,,False,150.0,False,False,170.90000000596046,T1→T2,1640247.3999999762,69.0,819.0999999940395
GE4hogtdLdTFbNasENgtm6SO3hC3,red,O,3,True,R,70,R,,True,O,,,1644191.8999999762,GE4hogtdLdTFbNasENgtm6SO3hC3,1780.800000011921,1644049.199999988,1642434.3999999762,prp,,False,150.0,False,False,166.0,T1→T2,1642268.3999999762,70.0,1757.5
GE4hogtdLdTFbNasENgtm6SO3hC3,blue,O,1,True,B,71,B,,True,O,,,1647221.199999988,GE4hogtdLdTFbNasENgtm6SO3hC3,1657.3999999761581,1646872.8999999762,1646432.0,prp,,False,1200.0,False,False,1216.5,T1→T2,1645215.5,71.0,789.1999999880791
GE4hogtdLdTFbNasENgtm6SO3hC3,red,O,3,True,R,72,R,,True,O,,,1649711.7999999821,GE4hogtdLdTFbNasENgtm6SO3hC3,1320.0,1649572.5,1648859.199999988,prp,,False,600.0,False,False,606.6999999880791,T1→T2,1648252.5,72.0,852.5999999940395
GE4hogtdLdTFbNasENgtm6SO3hC3,red,O,9,True,R,73,R,,True,O,,,1651704.5,GE4hogtdLdTFbNasENgtm6SO3hC3,798.4000000059605,1651544.199999988,1651068.199999988,prp,,False,300.0,False,False,322.40000000596046,T1→T2,1650745.7999999821,73.0,636.3000000119209
GE4hogtdLdTFbNasENgtm6SO3hC3,red,O,3,True,R,74,R,,True,O,,,1653662.699999988,GE4hogtdLdTFbNasENgtm6SO3hC3,771.5,1653495.699999988,1653035.599999994,prp,,False,300.0,False,False,311.40000000596046,T1→T2,1652724.199999988,74.0,627.0999999940395
GE4hogtdLdTFbNasENgtm6SO3hC3,red,E,2,True,R,75,R,,True,E,,,1655925.099999994,GE4hogtdLdTFbNasENgtm6SO3hC3,1084.2999999821186,1655763.8999999762,1655302.099999994,prp,,False,600.0,False,False,622.5,T1→T2,1654679.599999994,75.0,623.0
GE4hogtdLdTFbNasENgtm6SO3hC3,red,O,7,True,R,76,R,,True,O,,,1658071.7999999821,GE4hogtdLdTFbNasENgtm6SO3hC3,960.6999999880791,1657908.2999999821,1657020.2999999821,prp,,False,50.0,False,False,72.69999998807907,T1→T2,1656947.599999994,76.0,1051.5
GE4hogtdLdTFbNasENgtm6SO3hC3,blue,E,6,True,B,77,B,,True,E,,,1660955.699999988,GE4hogtdLdTFbNasENgtm6SO3hC3,1594.5,1660690.699999988,1659416.199999988,prp,,False,300.0,False,False,320.0,T1→T2,1659096.199999988,77.0,1539.5
GE4hogtdLdTFbNasENgtm6SO3hC3,red,O,7,True,R,78,R,,True,O,,,1662855.7999999821,GE4hogtdLdTFbNasENgtm6SO3hC3,759.7000000178814,1662738.599999994,1662152.099999994,prp,,False,150.0,False,False,173.2000000178814,T1→T2,1661978.8999999762,78.0,703.6999999880791
GE4hogtdLdTFbNasENgtm6SO3hC3,red,O,7,True,R,79,R,,True,O,,,1665021.7999999821,GE4hogtdLdTFbNasENgtm6SO3hC3,1003.7999999821186,1664897.8999999762,1664069.0,prp,,False,150.0,False,False,174.90000000596046,T1→T2,1663894.099999994,79.0,952.7999999821186
GE4hogtdLdTFbNasENgtm6SO3hC3,red,O,7,True,R,80,R,,True,O,,,1667818.3999999762,GE4hogtdLdTFbNasENgtm6SO3hC3,1644.5,1667694.5,1667258.8999999762,prp,,False,1200.0,False,False,1208.8999999761581,T1→T2,1666050.0,80.0,559.5
GE4hogtdLdTFbNasENgtm6SO3hC3,red,O,1,True,R,81,R,,True,O,,,1669721.599999994,GE4hogtdLdTFbNasENgtm6SO3hC3,741.9000000059605,1669589.2999999821,1668919.599999994,prp,,False,50.0,False,False,72.2000000178814,T1→T2,1668847.3999999762,81.0,802.0
GE4hogtdLdTFbNasENgtm6SO3hC3,blue,E,2,True,B,82,B,,True,E,,,1672356.099999994,GE4hogtdLdTFbNasENgtm6SO3hC3,1490.699999988079,1672243.3999999762,1670816.8999999762,prp,,False,50.0,False,False,64.19999998807907,T1→T2,1670752.699999988,82.0,1539.2000000178814
GE4hogtdLdTFbNasENgtm6SO3hC3,red,O,3,True,R,83,R,,True,O,,,1674744.199999988,GE4hogtdLdTFbNasENgtm6SO3hC3,1242.0,1674625.5,1673456.199999988,prp,,False,50.0,False,False,72.69999998807907,T1→T2,1673383.5,83.0,1288.0
GE4hogtdLdTFbNasENgtm6SO3hC3,red,E,4,True,R,84,R,,True,E,,,1677502.5,GE4hogtdLdTFbNasENgtm6SO3hC3,1601.5,1677361.8999999762,1676974.699999988,prp,,False,1200.0,False,False,1214.300000011921,T1→T2,1675760.3999999762,84.0,527.8000000119209
GE4hogtdLdTFbNasENgtm6SO3hC3,red,E,2,True,R,85,R,,True,E,,,1680305.099999994,GE4hogtdLdTFbNasENgtm6SO3hC3,1607.5999999940395,1680142.7999999821,1679746.0,prp,,False,1200.0,False,False,1210.800000011921,T1→T2,1678535.199999988,85.0,559.0999999940395
GE4hogtdLdTFbNasENgtm6SO3hC3,blue,O,5,True,B,86,R,,False,O,,,1682602.5,GE4hogtdLdTFbNasENgtm6SO3hC3,1115.800000011921,1682438.099999994,1681389.699999988,prp,,False,50.0,False,False,67.40000000596046,T1→T2,1681322.2999999821,86.0,1212.800000011921
GE4hogtdLdTFbNasENgtm6SO3hC3,blue,O,7,True,B,87,B,,True,O,,,1685608.199999988,GE4hogtdLdTFbNasENgtm6SO3hC3,1829.5999999940395,1685468.8999999762,1683704.599999994,prp,,False,50.0,False,False,65.30000001192093,T1→T2,1683639.2999999821,87.0,1903.5999999940395
GE4hogtdLdTFbNasENgtm6SO3hC3,blue,O,1,True,B,88,B,,True,O,,,1688459.3999999762,GE4hogtdLdTFbNasENgtm6SO3hC3,1667.2999999821186,1688312.3999999762,1687859.199999988,prp,,False,1200.0,False,False,1214.0999999940395,T1→T2,1686645.099999994,88.0,600.1999999880791
GE4hogtdLdTFbNasENgtm6SO3hC3,blue,E,2,True,B,89,B,,True,E,,,1692176.5,GE4hogtdLdTFbNasENgtm6SO3hC3,2555.7999999821186,1692042.8999999762,1689552.599999994,prp,,False,50.0,False,False,65.5,T1→T2,1689487.099999994,89.0,2623.9000000059605
GE4hogtdLdTFbNasENgtm6SO3hC3,blue,E,8,True,B,90,B,,True,E,,,1704325.3999999762,GE4hogtdLdTFbNasENgtm6SO3hC3,1015.9000000059605,1704228.599999994,1703406.3999999762,prp,,False,150.0,False,False,193.69999998807907,T1→T2,1703212.699999988,90.0,919.0
GE4hogtdLdTFbNasENgtm6SO3hC3,blue,E,2,True,B,91,B,,True,E,,,1707091.699999988,GE4hogtdLdTFbNasENgtm6SO3hC3,1591.5,1706957.7999999821,1706580.0,prp,,False,1200.0,False,False,1213.7000000178814,T1→T2,1705366.2999999821,91.0,511.69999998807907
GE4hogtdLdTFbNasENgtm6SO3hC3,blue,E,2,True,B,92,B,,True,E,,,1708919.599999994,GE4hogtdLdTFbNasENgtm6SO3hC3,693.7000000178814,1708817.5,1708200.3999999762,prp,,False,50.0,False,False,76.59999999403954,T1→T2,1708123.7999999821,92.0,719.2000000178814
GE4hogtdLdTFbNasENgtm6SO3hC3,blue,O,7,True,B,93,B,,True,O,,,1711073.599999994,GE4hogtdLdTFbNasENgtm6SO3hC3,1008.5999999940395,1710951.199999988,1710565.2999999821,prp,,False,600.0,False,False,622.6999999880791,T1→T2,1709942.599999994,93.0,508.30000001192093
GE4hogtdLdTFbNasENgtm6SO3hC3,blue,E,8,True,B,94,B,,True,E,,,1713037.3999999762,GE4hogtdLdTFbNasENgtm6SO3hC3,812.3000000119209,1712923.5,1712433.7999999821,prp,,False,300.0,False,False,322.59999999403954,T1→T2,1712111.199999988,94.0,603.5999999940395
GE4hogtdLdTFbNasENgtm6SO3hC3,blue,O,5,True,B,95,B,,True,O,,,1715376.2999999821,GE4hogtdLdTFbNasENgtm6SO3hC3,1178.7999999821186,1715253.3999999762,1714383.8999999762,prp,,False,300.0,False,False,309.2999999821186,T1→T2,1714074.599999994,95.0,992.4000000059605
GE4hogtdLdTFbNasENgtm6SO3hC3,red,E,6,True,R,96,R,,True,E,,,1717610.5,GE4hogtdLdTFbNasENgtm6SO3hC3,1078.5999999940395,1717487.099999994,1717029.099999994,prp,,False,600.0,False,False,620.5999999940395,T1→T2,1716408.5,96.0,581.4000000059605
GE4hogtdLdTFbNasENgtm6SO3hC3,red,E,4,True,R,97,R,,True,E,,,1719641.5,GE4hogtdLdTFbNasENgtm6SO3hC3,861.6999999880791,1719507.2999999821,1718965.699999988,prp,,False,300.0,False,False,320.09999999403954,T1→T2,1718645.599999994,97.0,675.8000000119209
GE4hogtdLdTFbNasENgtm6SO3hC3,red,E,8,True,R,98,R,,True,E,,,1722390.0,GE4hogtdLdTFbNasENgtm6SO3hC3,1625.199999988079,1722291.3999999762,1721887.199999988,prp,,False,1200.0,False,False,1221.0,T1→T2,1720666.199999988,98.0,502.80000001192093
GE4hogtdLdTFbNasENgtm6SO3hC3,blue,E,6,True,B,99,B,,True,E,,,1724406.8999999762,GE4hogtdLdTFbNasENgtm6SO3hC3,859.2999999821186,1724272.3999999762,1723489.199999988,prp,,False,50.0,False,False,76.09999999403954,T1→T2,1723413.099999994,99.0,917.6999999880791
GE4hogtdLdTFbNasENgtm6SO3hC3,blue,O,9,True,B,100,B,,True,O,,,1726685.099999994,GE4hogtdLdTFbNasENgtm6SO3hC3,912.0,1726349.099999994,1725618.8999999762,prp,,False,150.0,False,False,181.7999999821186,T1→T2,1725437.099999994,100.0,1066.2000000178814
GE4hogtdLdTFbNasENgtm6SO3hC3,red,O,9,True,R,101,R,,True,O,,,1728902.099999994,GE4hogtdLdTFbNasENgtm6SO3hC3,1075.9000000059605,1728785.199999988,1727885.599999994,prp,,False,150.0,False,False,176.30000001192093,T1→T2,1727709.2999999821,101.0,1016.5
GE4hogtdLdTFbNasENgtm6SO3hC3,red,O,1,True,R,102,R,,True,O,,,1731179.599999994,GE4hogtdLdTFbNasENgtm6SO3hC3,1100.6000000238419,1731035.5,1730557.099999994,prp,,False,600.0,False,False,622.2000000178814,T1→T2,1729934.8999999762,102.0,622.5
GE4hogtdLdTFbNasENgtm6SO3hC3,red,E,6,True,R,103,R,,True,E,,,1733255.699999988,GE4hogtdLdTFbNasENgtm6SO3hC3,918.2000000178814,1733128.0,1732532.3999999762,prp,,False,300.0,False,False,322.59999999403954,T1→T2,1732209.7999999821,103.0,723.3000000119209
GE4hogtdLdTFbNasENgtm6SO3hC3,red,E,4,True,R,104,R,,True,E,,,1735453.699999988,GE4hogtdLdTFbNasENgtm6SO3hC3,1066.2999999821186,1735331.8999999762,1734341.7999999821,prp,,False,50.0,False,False,76.19999998807907,T1→T2,1734265.599999994,104.0,1111.9000000059605
GE4hogtdLdTFbNasENgtm6SO3hC3,red,E,8,True,R,105,R,,True,E,,,1737376.0,GE4hogtdLdTFbNasENgtm6SO3hC3,750.9000000059605,1737237.199999988,1736803.2999999821,prp,,False,300.0,False,False,317.0,T1→T2,1736486.2999999821,105.0,572.7000000178814
GE4hogtdLdTFbNasENgtm6SO3hC3,red,O,7,True,R,106,R,,True,O,,,1740353.599999994,GE4hogtdLdTFbNasENgtm6SO3hC3,1795.9000000059605,1740196.7999999821,1739619.7999999821,prp,,False,1200.0,False,False,1218.9000000059605,T1→T2,1738400.8999999762,106.0,733.8000000119209
GE4hogtdLdTFbNasENgtm6SO3hC3,red,O,3,True,R,107,R,,True,O,,,1742491.0,GE4hogtdLdTFbNasENgtm6SO3hC3,961.7999999821186,1742339.3999999762,1741455.8999999762,prp,,False,50.0,False,False,78.2999999821186,T1→T2,1741377.599999994,107.0,1035.1000000238419
GE4hogtdLdTFbNasENgtm6SO3hC3,blue,E,8,True,B,108,B,,True,E,,,1745392.0,GE4hogtdLdTFbNasENgtm6SO3hC3,1742.0,1745255.5,1743687.599999994,prp,,False,150.0,False,False,174.09999999403954,T1→T2,1743513.5,108.0,1704.4000000059605
GE4hogtdLdTFbNasENgtm6SO3hC3,blue,E,2,True,B,109,B,,True,E,,,1747370.7999999821,GE4hogtdLdTFbNasENgtm6SO3hC3,804.0999999940395,1747230.599999994,1746749.5,prp,,False,300.0,False,False,323.0,T1→T2,1746426.5,109.0,621.2999999821186
GE4hogtdLdTFbNasENgtm6SO3hC3,red,E,2,True,R,110,R,,True,E,,,1749236.599999994,GE4hogtdLdTFbNasENgtm6SO3hC3,753.5999999940395,1749145.099999994,1748568.2999999821,prp,,False,150.0,False,False,176.7999999821186,T1→T2,1748391.5,110.0,668.3000000119209
GE4hogtdLdTFbNasENgtm6SO3hC3,red,O,9,True,R,111,R,,True,O,,,1751609.699999988,GE4hogtdLdTFbNasENgtm6SO3hC3,1242.2999999821186,1751501.2999999821,1750880.599999994,prp,,False,600.0,False,False,621.5999999940395,T1→T2,1750259.0,111.0,729.0999999940395
GE4hogtdLdTFbNasENgtm6SO3hC3,red,O,9,True,R,112,R,,True,O,,,1753754.599999994,GE4hogtdLdTFbNasENgtm6SO3hC3,998.1999999880791,1753643.8999999762,1753253.0,prp,,False,600.0,False,False,607.3000000119209,T1→T2,1752645.699999988,112.0,501.59999999403954
GE4hogtdLdTFbNasENgtm6SO3hC3,blue,O,5,True,B,113,B,,True,O,,,1756439.8999999762,GE4hogtdLdTFbNasENgtm6SO3hC3,1534.5999999940395,1756337.099999994,1755110.0,prp,,False,300.0,False,False,307.5,T1→T2,1754802.5,113.0,1329.8999999761581
GE4hogtdLdTFbNasENgtm6SO3hC3,red,E,4,True,R,114,R,,True,E,,,1759171.0,GE4hogtdLdTFbNasENgtm6SO3hC3,1602.1000000238419,1759060.5,1758673.7999999821,prp,,False,1200.0,False,False,1215.4000000059605,T1→T2,1757458.3999999762,114.0,497.2000000178814
GE4hogtdLdTFbNasENgtm6SO3hC3,blue,O,1,True,B,115,B,,True,O,,,1761505.0,GE4hogtdLdTFbNasENgtm6SO3hC3,1193.5999999940395,1761388.2999999821,1760370.3999999762,prp,,False,150.0,False,False,175.69999998807907,T1→T2,1760194.699999988,115.0,1134.6000000238419
GE4hogtdLdTFbNasENgtm6SO3hC3,red,E,7,False,R,116,R,,True,O,,,1763858.699999988,GE4hogtdLdTFbNasENgtm6SO3hC3,1211.9000000059605,1763742.2999999821,1762851.199999988,prp,,False,300.0,False,False,320.80000001192093,T1→T2,1762530.3999999762,116.0,1007.5
GE4hogtdLdTFbNasENgtm6SO3hC3,red,O,5,True,R,117,R,,True,O,,,1766677.3999999762,GE4hogtdLdTFbNasENgtm6SO3hC3,1663.5,1766543.2999999821,1766091.7999999821,prp,,False,1200.0,False,False,1212.0,T1→T2,1764879.7999999821,117.0,585.5999999940395
GE4hogtdLdTFbNasENgtm6SO3hC3,blue,E,4,True,B,118,B,,True,E,,,1769577.0,GE4hogtdLdTFbNasENgtm6SO3hC3,1727.9000000059605,1769440.099999994,1768924.2999999821,prp,,False,1200.0,False,False,1212.0999999940395,T1→T2,1767712.199999988,118.0,652.7000000178814
GE4hogtdLdTFbNasENgtm6SO3hC3,blue,O,9,True,B,119,B,,True,O,,,1772334.699999988,GE4hogtdLdTFbNasENgtm6SO3hC3,1038.0999999940395,1771638.7999999821,1770770.7999999821,prp,,False,150.0,False,False,170.09999999403954,T1→T2,1770600.699999988,119.0,1563.9000000059605
Qv0jhW3sqicqQvd7LfReAsI7nD73,blue,E,4,True,B,0,B,,True,E,,,504940.59999999404,Qv0jhW3sqicqQvd7LfReAsI7nD73,1490.0,504933.40000000596,503622.3000000119,prp,,False,150.0,False,False,178.90000000596046,T1→T2,503443.40000000596,0.0,1318.2999999821186
Qv0jhW3sqicqQvd7LfReAsI7nD73,blue,O,5,True,B,1,B,,True,O,,,507884.09999999404,Qv0jhW3sqicqQvd7LfReAsI7nD73,1902.0,507872.90000000596,507185.2000000179,prp,,False,1200.0,False,False,1214.300000011921,T1→T2,505970.90000000596,1.0,698.8999999761581
Qv0jhW3sqicqQvd7LfReAsI7nD73,blue,O,1,True,B,2,B,,True,O,,,510100.7000000179,Qv0jhW3sqicqQvd7LfReAsI7nD73,1171.2000000178814,510084.7000000179,509093.7000000179,prp,,False,150.0,False,False,180.2000000178814,T1→T2,508913.5,2.0,1007.0
Qv0jhW3sqicqQvd7LfReAsI7nD73,red,E,8,True,R,3,R,,True,E,,,512133.09999999404,Qv0jhW3sqicqQvd7LfReAsI7nD73,1029.2000000178814,512152.2000000179,511205.3000000119,prp,,True,50.0,False,False,82.30000001192093,T2→T1,511123.0,3.0,927.7999999821186
Qv0jhW3sqicqQvd7LfReAsI7nD73,red,E,4,True,R,4,R,,True,E,,,514522.5,Qv0jhW3sqicqQvd7LfReAsI7nD73,1389.5,514562.09999999404,513484.40000000596,prp,,True,300.0,False,False,311.80000001192093,T2→T1,513172.59999999404,4.0,1038.0999999940395
Qv0jhW3sqicqQvd7LfReAsI7nD73,red,O,1,True,R,5,R,,True,O,,,516616.90000000596,Qv0jhW3sqicqQvd7LfReAsI7nD73,1034.5,516623.7000000179,515773.5,prp,,True,150.0,False,False,184.2999999821186,T2→T1,515589.2000000179,5.0,843.4000000059605
Qv0jhW3sqicqQvd7LfReAsI7nD73,blue,E,6,True,B,6,B,,True,E,,,518713.0,Qv0jhW3sqicqQvd7LfReAsI7nD73,1031.4000000059605,518704.90000000596,517843.59999999404,prp,,False,150.0,False,False,170.09999999403954,T1→T2,517673.5,6.0,869.4000000059605
Qv0jhW3sqicqQvd7LfReAsI7nD73,red,O,5,True,R,7,R,,True,O,,,520962.90000000596,Qv0jhW3sqicqQvd7LfReAsI7nD73,1229.8999999761581,520970.09999999404,520360.2000000179,prp,,True,600.0,False,False,620.0,T2→T1,519740.2000000179,7.0,602.6999999880791
Qv0jhW3sqicqQvd7LfReAsI7nD73,blue,E,4,True,B,8,B,,True,E,,,523699.09999999404,Qv0jhW3sqicqQvd7LfReAsI7nD73,1704.5999999940395,523691.0,523203.2000000179,prp,,False,1200.0,False,False,1216.800000011921,T1→T2,521986.40000000596,8.0,495.89999997615814
Qv0jhW3sqicqQvd7LfReAsI7nD73,red,O,3,True,R,9,R,,True,O,,,525814.8000000119,Qv0jhW3sqicqQvd7LfReAsI7nD73,1098.5,525824.2000000179,525036.2000000179,prp,,True,300.0,False,False,310.5,T2→T1,524725.7000000179,9.0,778.5999999940395
Qv0jhW3sqicqQvd7LfReAsI7nD73,red,E,4,True,R,10,R,,True,E,,,527878.900000006,Qv0jhW3sqicqQvd7LfReAsI7nD73,1043.0999999940395,527885.5,527019.7000000179,prp,,True,150.0,False,False,177.30000001192093,T2→T1,526842.400000006,10.0,859.1999999880791
Qv0jhW3sqicqQvd7LfReAsI7nD73,red,O,5,True,R,11,R,,True,O,,,530226.7000000179,Qv0jhW3sqicqQvd7LfReAsI7nD73,1312.0999999940395,530218.599999994,529529.0,prp,,False,600.0,False,False,622.5,T1→T2,528906.5,11.0,697.7000000178814
Qv0jhW3sqicqQvd7LfReAsI7nD73,blue,O,1,True,B,12,B,,True,O,,,532573.599999994,Qv0jhW3sqicqQvd7LfReAsI7nD73,1308.6000000238419,532567.2000000179,531339.3000000119,prp,,False,50.0,False,False,80.7000000178814,T1→T2,531258.599999994,12.0,1234.2999999821186
Qv0jhW3sqicqQvd7LfReAsI7nD73,red,O,9,True,R,13,R,,True,O,,,534725.3000000119,Qv0jhW3sqicqQvd7LfReAsI7nD73,1125.5,534717.2000000179,533923.599999994,prp,,False,300.0,False,False,331.89999997615814,T1→T2,533591.7000000179,13.0,801.7000000178814
Qv0jhW3sqicqQvd7LfReAsI7nD73,red,E,8,True,R,14,R,,True,E,,,536877.7000000179,Qv0jhW3sqicqQvd7LfReAsI7nD73,1147.7999999821186,536889.599999994,536051.7000000179,prp,,True,300.0,False,False,309.90000000596046,T2→T1,535741.8000000119,14.0,826.0
Qv0jhW3sqicqQvd7LfReAsI7nD73,blue,E,8,True,B,15,B,,True,E,,,539629.8000000119,Qv0jhW3sqicqQvd7LfReAsI7nD73,1755.300000011921,539663.2000000179,539140.2000000179,prp,,True,1200.0,False,False,1232.300000011921,T2→T1,537907.900000006,15.0,489.59999999403954
Qv0jhW3sqicqQvd7LfReAsI7nD73,blue,O,5,True,B,16,B,,True,O,,,541810.900000006,Qv0jhW3sqicqQvd7LfReAsI7nD73,1109.5,541803.0,541006.2000000179,prp,,False,300.0,False,False,312.7000000178814,T1→T2,540693.5,16.0,804.6999999880791
Qv0jhW3sqicqQvd7LfReAsI7nD73,red,E,8,True,R,17,R,,True,E,,,543718.400000006,Qv0jhW3sqicqQvd7LfReAsI7nD73,897.8000000119209,543741.2000000179,543007.0,prp,,True,150.0,False,False,163.59999999403954,T2→T1,542843.400000006,17.0,711.4000000059605
Qv0jhW3sqicqQvd7LfReAsI7nD73,blue,E,6,True,B,18,B,,True,E,,,546358.7000000179,Qv0jhW3sqicqQvd7LfReAsI7nD73,1608.1000000238419,546365.7000000179,545972.900000006,prp,,True,1200.0,False,False,1215.300000011921,T2→T1,544757.599999994,18.0,385.80000001192093
Qv0jhW3sqicqQvd7LfReAsI7nD73,red,O,1,True,R,19,R,,True,O,,,549047.2000000179,Qv0jhW3sqicqQvd7LfReAsI7nD73,1672.7999999821186,549065.099999994,548607.2000000179,prp,,True,1200.0,False,False,1214.9000000059605,T2→T1,547392.3000000119,19.0,440.0
Qv0jhW3sqicqQvd7LfReAsI7nD73,blue,O,5,True,B,20,B,,True,O,,,551717.599999994,Qv0jhW3sqicqQvd7LfReAsI7nD73,1632.6000000238419,551727.2000000179,551300.599999994,prp,,True,1200.0,False,False,1206.0,T2→T1,550094.599999994,20.0,417.0
Qv0jhW3sqicqQvd7LfReAsI7nD73,blue,O,9,True,B,21,B,,True,O,,,553818.3000000119,Qv0jhW3sqicqQvd7LfReAsI7nD73,1056.3999999761581,553822.599999994,552821.8000000119,prp,,True,50.0,False,False,55.599999994039536,T2→T1,552766.2000000179,21.0,996.5
Qv0jhW3sqicqQvd7LfReAsI7nD73,red,E,6,True,R,22,R,,True,E,,,555961.599999994,Qv0jhW3sqicqQvd7LfReAsI7nD73,1146.9000000059605,555987.3000000119,555458.599999994,prp,,True,600.0,False,False,618.1999999880791,T2→T1,554840.400000006,22.0,503.0
Qv0jhW3sqicqQvd7LfReAsI7nD73,blue,E,6,True,B,23,B,,True,E,,,557757.900000006,Qv0jhW3sqicqQvd7LfReAsI7nD73,740.5,557750.099999994,557091.099999994,prp,,False,50.0,False,False,81.5,T1→T2,557009.599999994,23.0,666.8000000119209
Qv0jhW3sqicqQvd7LfReAsI7nD73,blue,O,7,True,B,24,B,,True,O,,,560100.099999994,Qv0jhW3sqicqQvd7LfReAsI7nD73,1333.199999988079,560108.0,558939.8000000119,prp,,True,150.0,False,False,165.0,T2→T1,558774.8000000119,24.0,1160.2999999821186
Qv0jhW3sqicqQvd7LfReAsI7nD73,red,O,3,True,R,25,R,,True,O,,,562793.8000000119,Qv0jhW3sqicqQvd7LfReAsI7nD73,1659.0999999940395,562785.5,562337.2000000179,prp,,False,1200.0,False,False,1210.800000011921,T1→T2,561126.400000006,25.0,456.59999999403954
Qv0jhW3sqicqQvd7LfReAsI7nD73,blue,O,1,True,B,26,B,,True,O,,,565011.099999994,Qv0jhW3sqicqQvd7LfReAsI7nD73,1166.7999999821186,564976.5,563871.5,prp,,False,50.0,False,False,61.79999998211861,T1→T2,563809.7000000179,26.0,1139.5999999940395
Qv0jhW3sqicqQvd7LfReAsI7nD73,red,O,9,True,R,27,R,,True,O,,,567208.099999994,Qv0jhW3sqicqQvd7LfReAsI7nD73,1187.0999999940395,567214.599999994,566647.099999994,prp,,True,600.0,False,False,619.5999999940395,T2→T1,566027.5,27.0,561.0
Qv0jhW3sqicqQvd7LfReAsI7nD73,red,E,2,True,R,28,R,,True,E,,,569901.5,Qv0jhW3sqicqQvd7LfReAsI7nD73,1684.4000000059605,569926.2000000179,569456.2000000179,prp,,True,1200.0,False,False,1214.4000000059605,T2→T1,568241.8000000119,28.0,445.2999999821186
Qv0jhW3sqicqQvd7LfReAsI7nD73,red,E,4,True,R,29,R,,True,E,,,573055.7000000179,Qv0jhW3sqicqQvd7LfReAsI7nD73,2129.4000000059605,573073.0,572156.3000000119,prp,,True,1200.0,False,False,1212.7000000178814,T2→T1,570943.599999994,29.0,899.4000000059605
Qv0jhW3sqicqQvd7LfReAsI7nD73,blue,E,4,True,B,30,B,,True,E,,,585510.2000000179,Qv0jhW3sqicqQvd7LfReAsI7nD73,1437.199999988079,585531.099999994,584175.7000000179,prp,,True,50.0,False,False,81.80000001192093,T2→T1,584093.900000006,30.0,1334.5
Qv0jhW3sqicqQvd7LfReAsI7nD73,red,E,6,True,R,31,R,,True,E,,,588270.8000000119,Qv0jhW3sqicqQvd7LfReAsI7nD73,1717.5,588279.0,587775.400000006,prp,,True,1200.0,False,False,1213.9000000059605,T2→T1,586561.5,31.0,495.40000000596046
Qv0jhW3sqicqQvd7LfReAsI7nD73,red,E,4,True,R,32,R,,True,E,,,590456.400000006,Qv0jhW3sqicqQvd7LfReAsI7nD73,1191.0999999940395,590498.400000006,589915.099999994,prp,,True,600.0,False,False,607.7999999821186,T2→T1,589307.3000000119,32.0,541.3000000119209
Qv0jhW3sqicqQvd7LfReAsI7nD73,blue,E,8,True,B,33,B,,True,E,,,592492.599999994,Qv0jhW3sqicqQvd7LfReAsI7nD73,978.5,592506.099999994,591706.3000000119,prp,,True,150.0,False,False,178.7000000178814,T2→T1,591527.599999994,33.0,786.2999999821186
Qv0jhW3sqicqQvd7LfReAsI7nD73,blue,E,8,True,B,34,B,,True,E,,,594370.7000000179,Qv0jhW3sqicqQvd7LfReAsI7nD73,855.7000000178814,594384.2000000179,593706.400000006,prp,,True,150.0,False,False,177.90000000596046,T2→T1,593528.5,34.0,664.3000000119209
Qv0jhW3sqicqQvd7LfReAsI7nD73,blue,E,6,True,B,35,B,,True,E,,,596495.3000000119,Qv0jhW3sqicqQvd7LfReAsI7nD73,1097.0,596508.5,596032.099999994,prp,,True,600.0,False,False,620.5999999940395,T2→T1,595411.5,35.0,463.2000000178814
Qv0jhW3sqicqQvd7LfReAsI7nD73,red,O,9,True,R,36,R,,True,O,,,598752.900000006,Qv0jhW3sqicqQvd7LfReAsI7nD73,1217.7999999821186,598745.5,597609.599999994,prp,,False,50.0,False,False,81.89999997615814,T1→T2,597527.7000000179,36.0,1143.300000011921
Qv0jhW3sqicqQvd7LfReAsI7nD73,blue,E,6,True,B,37,B,,True,E,,,600613.400000006,Qv0jhW3sqicqQvd7LfReAsI7nD73,850.3000000119209,600627.900000006,600097.7000000179,prp,,True,300.0,False,False,320.10000002384186,T2→T1,599777.599999994,37.0,515.6999999880791
Qv0jhW3sqicqQvd7LfReAsI7nD73,red,E,8,True,R,38,R,,True,E,,,603044.8000000119,Qv0jhW3sqicqQvd7LfReAsI7nD73,1427.5,603068.3000000119,601709.5,prp,,True,50.0,False,False,68.69999998807907,T2→T1,601640.8000000119,38.0,1335.300000011921
Qv0jhW3sqicqQvd7LfReAsI7nD73,red,O,5,True,R,39,R,,True,O,,,604976.0,Qv0jhW3sqicqQvd7LfReAsI7nD73,868.5,604962.2000000179,604257.7000000179,prp,,False,150.0,False,False,164.0,T1→T2,604093.7000000179,39.0,718.2999999821186
Qv0jhW3sqicqQvd7LfReAsI7nD73,red,O,5,True,R,40,R,,True,O,,,606728.5,Qv0jhW3sqicqQvd7LfReAsI7nD73,726.0,606721.5,606178.3000000119,prp,,False,150.0,False,False,182.80000001192093,T1→T2,605995.5,40.0,550.1999999880791
Qv0jhW3sqicqQvd7LfReAsI7nD73,red,O,7,True,R,41,R,,True,O,,,609378.8000000119,Qv0jhW3sqicqQvd7LfReAsI7nD73,1668.5,609412.599999994,608957.7000000179,prp,,True,1200.0,False,False,1213.6000000238419,T2→T1,607744.099999994,41.0,421.09999999403954
Qv0jhW3sqicqQvd7LfReAsI7nD73,blue,O,1,True,B,42,B,,True,O,,,611459.900000006,Qv0jhW3sqicqQvd7LfReAsI7nD73,1019.3000000119209,611448.7000000179,610743.5,prp,,False,300.0,False,False,314.09999999403954,T1→T2,610429.400000006,42.0,716.4000000059605
Qv0jhW3sqicqQvd7LfReAsI7nD73,red,E,4,True,R,43,R,,True,E,,,613411.099999994,Qv0jhW3sqicqQvd7LfReAsI7nD73,942.4000000059605,613419.0,612657.7000000179,prp,,True,150.0,False,False,181.10000002384186,T2→T1,612476.599999994,43.0,753.3999999761581
Qv0jhW3sqicqQvd7LfReAsI7nD73,blue,O,7,True,B,44,B,,True,O,,,615641.5,Qv0jhW3sqicqQvd7LfReAsI7nD73,1185.1000000238419,615630.7000000179,615064.900000006,prp,,False,600.0,False,False,619.3000000119209,T1→T2,614445.599999994,44.0,576.5999999940395
Qv0jhW3sqicqQvd7LfReAsI7nD73,red,E,8,True,R,45,R,,True,E,,,617683.599999994,Qv0jhW3sqicqQvd7LfReAsI7nD73,1035.8999999761581,617698.599999994,616846.3000000119,prp,,True,150.0,False,False,183.59999999403954,T2→T1,616662.7000000179,45.0,837.2999999821186
Qv0jhW3sqicqQvd7LfReAsI7nD73,blue,E,8,True,B,46,B,,True,E,,,619594.7000000179,Qv0jhW3sqicqQvd7LfReAsI7nD73,855.3000000119209,619585.2000000179,618808.900000006,prp,,False,50.0,False,False,79.0,T1→T2,618729.900000006,46.0,785.8000000119209
Qv0jhW3sqicqQvd7LfReAsI7nD73,blue,E,6,True,B,47,B,,True,E,,,621662.900000006,Qv0jhW3sqicqQvd7LfReAsI7nD73,1057.0,621669.5,620792.3000000119,prp,,True,150.0,False,False,179.80000001192093,T2→T1,620612.5,47.0,870.5999999940395
Qv0jhW3sqicqQvd7LfReAsI7nD73,blue,O,9,True,B,48,B,,True,O,,,623850.7000000179,Qv0jhW3sqicqQvd7LfReAsI7nD73,1132.4000000059605,623829.0,623316.099999994,prp,,False,600.0,False,False,619.5,T1→T2,622696.599999994,48.0,534.6000000238419
Qv0jhW3sqicqQvd7LfReAsI7nD73,red,O,5,True,R,49,R,,True,O,,,626294.0,Qv0jhW3sqicqQvd7LfReAsI7nD73,1420.7999999821186,626300.5,624962.5,prp,,True,50.0,False,False,82.7999999821186,T2→T1,624879.7000000179,49.0,1331.5
Qv0jhW3sqicqQvd7LfReAsI7nD73,blue,E,2,True,B,50,B,,True,E,,,628480.900000006,Qv0jhW3sqicqQvd7LfReAsI7nD73,1165.6000000238419,628494.2000000179,627645.0,prp,,True,300.0,False,False,316.40000000596046,T2→T1,627328.599999994,50.0,835.9000000059605
Qv0jhW3sqicqQvd7LfReAsI7nD73,red,E,2,True,R,51,R,,True,E,,,630373.8000000119,Qv0jhW3sqicqQvd7LfReAsI7nD73,859.6000000238419,630371.2000000179,629576.8000000119,prp,,False,50.0,False,False,65.2000000178814,T1→T2,629511.599999994,51.0,797.0
Qv0jhW3sqicqQvd7LfReAsI7nD73,blue,E,4,True,B,52,B,,True,E,,,633385.900000006,Qv0jhW3sqicqQvd7LfReAsI7nD73,2009.9000000059605,633405.5,632610.2000000179,prp,,True,1200.0,False,False,1214.6000000238419,T2→T1,631395.599999994,52.0,775.6999999880791
Qv0jhW3sqicqQvd7LfReAsI7nD73,red,E,6,True,R,53,R,,True,E,,,635442.099999994,Qv0jhW3sqicqQvd7LfReAsI7nD73,1039.7999999821186,635471.5,635050.5,prp,,True,600.0,False,False,618.7999999821186,T2→T1,634431.7000000179,53.0,391.59999999403954
Qv0jhW3sqicqQvd7LfReAsI7nD73,blue,O,5,True,B,54,B,,True,O,,,637891.8000000119,Qv0jhW3sqicqQvd7LfReAsI7nD73,1402.5,637899.2000000179,636676.900000006,prp,,True,150.0,False,False,180.19999998807907,T2→T1,636496.7000000179,54.0,1214.9000000059605
Qv0jhW3sqicqQvd7LfReAsI7nD73,blue,O,5,True,B,55,B,,True,O,,,640489.0,Qv0jhW3sqicqQvd7LfReAsI7nD73,1547.199999988079,640478.099999994,639550.2000000179,prp,,False,600.0,False,False,619.3000000119209,T1→T2,638930.900000006,55.0,938.7999999821186
Qv0jhW3sqicqQvd7LfReAsI7nD73,blue,E,8,True,B,56,R,,False,E,,,643091.900000006,Qv0jhW3sqicqQvd7LfReAsI7nD73,1574.5,643105.099999994,641609.400000006,prp,,True,50.0,False,False,78.80000001192093,T2→T1,641530.599999994,56.0,1482.5
Qv0jhW3sqicqQvd7LfReAsI7nD73,blue,E,6,True,B,57,B,,True,E,,,645058.099999994,Qv0jhW3sqicqQvd7LfReAsI7nD73,954.0,645082.2000000179,644209.8000000119,prp,,True,50.0,False,False,81.59999999403954,T2→T1,644128.2000000179,57.0,848.2999999821186
Qv0jhW3sqicqQvd7LfReAsI7nD73,red,O,1,True,R,58,R,,True,O,,,647479.900000006,Qv0jhW3sqicqQvd7LfReAsI7nD73,1390.0,647489.599999994,646179.7000000179,prp,,True,50.0,False,False,80.10000002384186,T2→T1,646099.599999994,58.0,1300.199999988079
Qv0jhW3sqicqQvd7LfReAsI7nD73,blue,O,9,True,B,59,B,,True,O,,,649688.0,Qv0jhW3sqicqQvd7LfReAsI7nD73,1162.199999988079,649680.099999994,649134.2000000179,prp,,False,600.0,False,False,616.3000000119209,T1→T2,648517.900000006,59.0,553.7999999821186
Qv0jhW3sqicqQvd7LfReAsI7nD73,red,O,7,True,R,60,R,,True,O,,,662219.8000000119,Qv0jhW3sqicqQvd7LfReAsI7nD73,1234.5999999940395,661950.5,661030.099999994,prp,,False,300.0,False,False,314.19999998807907,T1→T2,660715.900000006,60.0,1189.7000000178814
Qv0jhW3sqicqQvd7LfReAsI7nD73,blue,E,2,True,B,61,B,,True,E,,,664697.900000006,Qv0jhW3sqicqQvd7LfReAsI7nD73,1471.699999988079,664719.400000006,663427.099999994,prp,,True,150.0,False,False,179.39999997615814,T2→T1,663247.7000000179,61.0,1270.800000011921
Qv0jhW3sqicqQvd7LfReAsI7nD73,red,E,6,True,R,62,R,,True,E,,,666800.5,Qv0jhW3sqicqQvd7LfReAsI7nD73,1079.5999999940395,666831.5,666368.5,prp,,True,600.0,False,False,616.5999999940395,T2→T1,665751.900000006,62.0,432.0
Qv0jhW3sqicqQvd7LfReAsI7nD73,blue,E,8,True,B,63,B,,True,E,,,668973.099999994,Qv0jhW3sqicqQvd7LfReAsI7nD73,1124.0,668968.099999994,668452.2000000179,prp,,False,600.0,False,False,608.1000000238419,T1→T2,667844.099999994,63.0,520.8999999761581
Qv0jhW3sqicqQvd7LfReAsI7nD73,blue,O,3,True,B,64,B,,True,O,,,670799.5,Qv0jhW3sqicqQvd7LfReAsI7nD73,775.0999999940395,670789.900000006,670094.7000000179,prp,,False,50.0,False,False,79.90000000596046,T1→T2,670014.8000000119,64.0,704.7999999821186
Qv0jhW3sqicqQvd7LfReAsI7nD73,red,O,9,True,R,65,R,,True,O,,,672705.5,Qv0jhW3sqicqQvd7LfReAsI7nD73,885.5999999940395,672698.5,671878.3000000119,prp,,False,50.0,False,False,65.40000000596046,T1→T2,671812.900000006,65.0,827.1999999880791
Qv0jhW3sqicqQvd7LfReAsI7nD73,red,E,6,True,R,66,R,,True,E,,,675422.8000000119,Qv0jhW3sqicqQvd7LfReAsI7nD73,1706.7999999821186,675438.5,674945.5,prp,,True,1200.0,False,False,1213.7999999821186,T2→T1,673731.7000000179,66.0,477.30000001192093
Qv0jhW3sqicqQvd7LfReAsI7nD73,red,O,7,True,R,67,R,,True,O,,,677496.400000006,Qv0jhW3sqicqQvd7LfReAsI7nD73,1024.1000000238419,677490.7000000179,676776.0,prp,,False,300.0,False,False,309.40000000596046,T1→T2,676466.599999994,67.0,720.4000000059605
Qv0jhW3sqicqQvd7LfReAsI7nD73,blue,O,5,True,B,68,B,,True,O,,,680200.900000006,Qv0jhW3sqicqQvd7LfReAsI7nD73,1690.5,680207.599999994,679732.400000006,prp,,True,1200.0,False,False,1215.300000011921,T2→T1,678517.099999994,68.0,468.5
Qv0jhW3sqicqQvd7LfReAsI7nD73,blue,O,1,True,B,69,B,,True,O,,,681945.099999994,Qv0jhW3sqicqQvd7LfReAsI7nD73,705.2000000178814,681936.7000000179,681296.0,prp,,False,50.0,False,False,64.5,T1→T2,681231.5,69.0,649.0999999940395
Qv0jhW3sqicqQvd7LfReAsI7nD73,blue,O,5,True,B,70,B,,True,O,,,683754.400000006,Qv0jhW3sqicqQvd7LfReAsI7nD73,780.2000000178814,683747.8000000119,683282.0,prp,,False,300.0,False,False,314.40000000596046,T1→T2,682967.599999994,70.0,472.40000000596046
Qv0jhW3sqicqQvd7LfReAsI7nD73,red,O,7,True,R,71,R,,True,O,,,686365.0,Qv0jhW3sqicqQvd7LfReAsI7nD73,1601.5999999940395,686386.3000000119,685996.5,prp,,True,1200.0,False,False,1211.7999999821186,T2→T1,684784.7000000179,71.0,368.5
Qv0jhW3sqicqQvd7LfReAsI7nD73,blue,O,5,True,B,72,B,,True,O,,,688407.0,Qv0jhW3sqicqQvd7LfReAsI7nD73,996.3999999761581,688414.099999994,688036.099999994,prp,,True,600.0,False,False,618.3999999761581,T2→T1,687417.7000000179,72.0,370.90000000596046
Qv0jhW3sqicqQvd7LfReAsI7nD73,blue,E,6,True,B,73,B,,True,E,,,690841.099999994,Qv0jhW3sqicqQvd7LfReAsI7nD73,1400.7999999821186,690833.599999994,689747.3000000119,prp,,False,300.0,False,False,314.5,T1→T2,689432.8000000119,73.0,1093.7999999821186
Qv0jhW3sqicqQvd7LfReAsI7nD73,blue,O,1,True,B,74,B,,True,O,,,692545.0,Qv0jhW3sqicqQvd7LfReAsI7nD73,689.3999999761581,692556.099999994,691945.7000000179,prp,,True,50.0,False,False,79.0,T2→T1,691866.7000000179,74.0,599.2999999821186
Qv0jhW3sqicqQvd7LfReAsI7nD73,red,E,4,True,R,75,R,,True,E,,,694501.5,Qv0jhW3sqicqQvd7LfReAsI7nD73,925.7000000178814,694509.3000000119,693746.599999994,prp,,True,150.0,False,False,163.0,T2→T1,693583.599999994,75.0,754.9000000059605
Qv0jhW3sqicqQvd7LfReAsI7nD73,blue,E,2,True,B,76,B,,True,E,,,696380.8000000119,Qv0jhW3sqicqQvd7LfReAsI7nD73,890.8999999761581,696422.599999994,695849.2000000179,prp,,True,300.0,False,False,317.5,T2→T1,695531.7000000179,76.0,531.5999999940395
Qv0jhW3sqicqQvd7LfReAsI7nD73,blue,O,9,True,B,77,B,,True,O,,,699022.599999994,Qv0jhW3sqicqQvd7LfReAsI7nD73,547.8999999761581,697998.599999994,697632.3000000119,prp,,False,150.0,False,False,181.59999999403954,T1→T2,697450.7000000179,77.0,1390.2999999821186
Qv0jhW3sqicqQvd7LfReAsI7nD73,red,O,1,True,R,78,R,,True,O,,,700978.2000000179,Qv0jhW3sqicqQvd7LfReAsI7nD73,898.8000000119209,700945.3000000119,700365.3000000119,prp,,False,300.0,False,False,318.80000001192093,T1→T2,700046.5,78.0,612.9000000059605
Qv0jhW3sqicqQvd7LfReAsI7nD73,red,E,8,True,R,79,R,,True,E,,,703452.599999994,Qv0jhW3sqicqQvd7LfReAsI7nD73,1177.4000000059605,703179.0,702314.599999994,prp,,False,300.0,False,False,313.0,T1→T2,702001.599999994,79.0,1138.0
Qv0jhW3sqicqQvd7LfReAsI7nD73,blue,E,6,True,B,80,B,,True,E,,,705738.5,Qv0jhW3sqicqQvd7LfReAsI7nD73,1234.300000011921,705719.8000000119,705100.2000000179,prp,,False,600.0,False,False,614.7000000178814,T1→T2,704485.5,80.0,638.2999999821186
Qv0jhW3sqicqQvd7LfReAsI7nD73,red,O,3,True,R,81,R,,True,O,,,707808.3000000119,Qv0jhW3sqicqQvd7LfReAsI7nD73,1032.5,707801.0,706930.099999994,prp,,False,150.0,False,False,161.59999999403954,T1→T2,706768.5,81.0,878.2000000178814
Qv0jhW3sqicqQvd7LfReAsI7nD73,red,O,5,True,R,82,R,,True,O,,,709867.8000000119,Qv0jhW3sqicqQvd7LfReAsI7nD73,1047.0999999940395,709879.8000000119,709454.3000000119,prp,,True,600.0,False,False,621.5999999940395,T2→T1,708832.7000000179,82.0,413.5
Qv0jhW3sqicqQvd7LfReAsI7nD73,blue,O,3,True,B,83,B,,True,O,,,712578.3000000119,Qv0jhW3sqicqQvd7LfReAsI7nD73,1682.4000000059605,712584.0,712119.400000006,prp,,True,1200.0,False,False,1217.800000011921,T2→T1,710901.599999994,83.0,458.90000000596046
Qv0jhW3sqicqQvd7LfReAsI7nD73,red,E,4,True,R,84,R,,True,E,,,714803.900000006,Qv0jhW3sqicqQvd7LfReAsI7nD73,1223.0,714825.5,714219.7000000179,prp,,True,600.0,False,False,617.2000000178814,T2→T1,713602.5,84.0,584.1999999880791
Qv0jhW3sqicqQvd7LfReAsI7nD73,blue,E,4,True,B,85,B,,True,E,,,716723.5,Qv0jhW3sqicqQvd7LfReAsI7nD73,856.0,716706.8000000119,715933.2000000179,prp,,False,50.0,False,False,82.40000000596046,T1→T2,715850.8000000119,85.0,790.2999999821186
Qv0jhW3sqicqQvd7LfReAsI7nD73,red,O,3,True,R,86,R,,True,O,,,719317.8000000119,Qv0jhW3sqicqQvd7LfReAsI7nD73,1543.0,719310.7000000179,718389.099999994,prp,,False,600.0,False,False,621.3999999761581,T1→T2,717767.7000000179,86.0,928.7000000178814
Qv0jhW3sqicqQvd7LfReAsI7nD73,blue,O,1,True,B,87,B,,True,O,,,721915.599999994,Qv0jhW3sqicqQvd7LfReAsI7nD73,1251.9000000059605,721586.0,720650.2000000179,prp,,False,300.0,False,False,316.10000002384186,T1→T2,720334.099999994,87.0,1265.3999999761581
Qv0jhW3sqicqQvd7LfReAsI7nD73,red,O,1,True,R,88,R,,True,O,,,724025.599999994,Qv0jhW3sqicqQvd7LfReAsI7nD73,1039.199999988079,723973.900000006,723554.400000006,prp,,False,600.0,False,False,619.6999999880791,T1→T2,722934.7000000179,88.0,471.19999998807907
Qv0jhW3sqicqQvd7LfReAsI7nD73,blue,O,3,True,B,89,B,,True,O,,,726395.5,Qv0jhW3sqicqQvd7LfReAsI7nD73,958.4000000059605,726005.900000006,725365.7000000179,prp,,False,300.0,False,False,318.2000000178814,T1→T2,725047.5,89.0,1029.7999999821186
Qv0jhW3sqicqQvd7LfReAsI7nD73,red,E,4,True,R,90,R,,True,E,,,738526.5,Qv0jhW3sqicqQvd7LfReAsI7nD73,1129.699999988079,738549.5,737734.400000006,prp,,True,300.0,False,False,314.59999999403954,T2→T1,737419.8000000119,90.0,792.0999999940395
Qv0jhW3sqicqQvd7LfReAsI7nD73,red,E,6,True,R,91,R,,True,E,,,740632.0,Qv0jhW3sqicqQvd7LfReAsI7nD73,1087.699999988079,740657.5,740191.2000000179,prp,,True,600.0,False,False,621.4000000059605,T2→T1,739569.8000000119,91.0,440.7999999821186
Qv0jhW3sqicqQvd7LfReAsI7nD73,red,E,2,True,R,92,R,,True,E,,,743294.3000000119,Qv0jhW3sqicqQvd7LfReAsI7nD73,1649.0,743331.5,742901.3000000119,prp,,True,1200.0,False,False,1218.800000011921,T2→T1,741682.5,92.0,393.0
Qv0jhW3sqicqQvd7LfReAsI7nD73,blue,E,8,True,B,93,B,,True,E,,,746006.099999994,Qv0jhW3sqicqQvd7LfReAsI7nD73,1648.4000000059605,746000.0,745565.400000006,prp,,False,1200.0,False,False,1213.800000011921,T1→T2,744351.599999994,93.0,440.69999998807907
Qv0jhW3sqicqQvd7LfReAsI7nD73,blue,E,8,True,B,94,B,,True,E,,,748126.099999994,Qv0jhW3sqicqQvd7LfReAsI7nD73,1101.2999999821186,748133.5,747640.400000006,prp,,True,600.0,False,False,608.1999999880791,T2→T1,747032.2000000179,94.0,485.69999998807907
Qv0jhW3sqicqQvd7LfReAsI7nD73,blue,O,9,True,B,95,B,,True,O,,,750953.5,Qv0jhW3sqicqQvd7LfReAsI7nD73,1774.0999999940395,750926.099999994,750365.599999994,prp,,False,1200.0,False,False,1213.5999999940395,T1→T2,749152.0,95.0,587.9000000059605
Qv0jhW3sqicqQvd7LfReAsI7nD73,red,E,6,True,R,96,R,,True,E,,,752883.599999994,Qv0jhW3sqicqQvd7LfReAsI7nD73,905.5999999940395,752876.5,752150.8000000119,prp,,False,150.0,False,False,179.90000000596046,T1→T2,751970.900000006,96.0,732.7999999821186
Qv0jhW3sqicqQvd7LfReAsI7nD73,blue,E,6,True,B,97,B,,True,E,,,754999.2000000179,Qv0jhW3sqicqQvd7LfReAsI7nD73,1106.300000011921,755010.2000000179,754523.3000000119,prp,,True,600.0,False,False,619.4000000059605,T2→T1,753903.900000006,97.0,475.90000000596046
Qv0jhW3sqicqQvd7LfReAsI7nD73,red,O,1,True,R,98,R,,True,O,,,756869.0,Qv0jhW3sqicqQvd7LfReAsI7nD73,821.0999999940395,756859.099999994,756350.400000006,prp,,False,300.0,False,False,312.40000000596046,T1→T2,756038.0,98.0,518.5999999940395
Qv0jhW3sqicqQvd7LfReAsI7nD73,red,E,8,True,R,99,R,,True,E,,,759033.5,Qv0jhW3sqicqQvd7LfReAsI7nD73,1166.2999999821186,759054.099999994,757965.900000006,prp,,True,50.0,False,False,78.09999999403954,T2→T1,757887.8000000119,99.0,1067.5999999940395
Qv0jhW3sqicqQvd7LfReAsI7nD73,red,O,3,True,R,100,R,,True,O,,,761809.5,Qv0jhW3sqicqQvd7LfReAsI7nD73,1727.0,761813.3000000119,761306.900000006,prp,,True,1200.0,False,False,1220.5999999940395,T2→T1,760086.3000000119,100.0,502.59999999403954
Qv0jhW3sqicqQvd7LfReAsI7nD73,red,O,5,True,R,101,R,,True,O,,,764547.099999994,Qv0jhW3sqicqQvd7LfReAsI7nD73,1740.800000011921,764574.400000006,764053.3000000119,prp,,True,1200.0,False,False,1219.7000000178814,T2→T1,762833.599999994,101.0,493.7999999821186
Qv0jhW3sqicqQvd7LfReAsI7nD73,blue,O,7,True,B,102,B,,True,O,,,766970.7000000179,Qv0jhW3sqicqQvd7LfReAsI7nD73,1205.4000000059605,766809.0,765783.2000000179,prp,,False,150.0,False,False,179.60000002384186,T1→T2,765603.599999994,102.0,1187.5
Qv0jhW3sqicqQvd7LfReAsI7nD73,red,O,7,True,R,103,R,,True,O,,,768796.5,Qv0jhW3sqicqQvd7LfReAsI7nD73,789.4000000059605,768781.2000000179,768165.900000006,prp,,False,150.0,False,False,174.09999999403954,T1→T2,767991.8000000119,103.0,630.5999999940395
Qv0jhW3sqicqQvd7LfReAsI7nD73,red,O,7,True,R,104,R,,True,O,,,770559.2000000179,Qv0jhW3sqicqQvd7LfReAsI7nD73,729.8000000119209,770551.400000006,770001.0,prp,,False,150.0,False,False,179.40000000596046,T1→T2,769821.599999994,104.0,558.2000000178814
Qv0jhW3sqicqQvd7LfReAsI7nD73,blue,O,3,True,B,105,B,,True,O,,,772599.7000000179,Qv0jhW3sqicqQvd7LfReAsI7nD73,965.0999999940395,772551.400000006,771902.400000006,prp,,False,300.0,False,False,316.09999999403954,T1→T2,771586.3000000119,105.0,697.3000000119209
Qv0jhW3sqicqQvd7LfReAsI7nD73,red,E,8,True,R,106,R,,True,E,,,774984.7000000179,Qv0jhW3sqicqQvd7LfReAsI7nD73,1081.3999999761581,774703.099999994,773933.8000000119,prp,,False,300.0,False,False,312.09999999403954,T1→T2,773621.7000000179,106.0,1050.9000000059605
Qv0jhW3sqicqQvd7LfReAsI7nD73,blue,E,6,True,B,107,B,,True,E,,,777966.599999994,Qv0jhW3sqicqQvd7LfReAsI7nD73,1787.2999999821186,777789.099999994,777215.900000006,prp,,False,1200.0,False,False,1214.0999999940395,T1→T2,776001.8000000119,107.0,750.6999999880791
Qv0jhW3sqicqQvd7LfReAsI7nD73,blue,E,6,True,B,108,B,,True,E,,,779958.900000006,Qv0jhW3sqicqQvd7LfReAsI7nD73,918.9000000059605,779907.5,779303.400000006,prp,,False,300.0,False,False,314.80000001192093,T1→T2,778988.599999994,108.0,655.5
Qv0jhW3sqicqQvd7LfReAsI7nD73,blue,O,5,True,B,109,B,,True,O,,,782439.2000000179,Qv0jhW3sqicqQvd7LfReAsI7nD73,1314.4000000059605,782305.0,781608.3000000119,prp,,False,600.0,False,False,617.7000000178814,T1→T2,780990.599999994,109.0,830.9000000059605
Qv0jhW3sqicqQvd7LfReAsI7nD73,blue,O,9,True,B,110,B,,True,O,,,784272.099999994,Qv0jhW3sqicqQvd7LfReAsI7nD73,633.9000000059605,784091.400000006,783638.5,prp,,False,150.0,False,False,181.0,T1→T2,783457.5,110.0,633.5999999940395
Qv0jhW3sqicqQvd7LfReAsI7nD73,blue,O,3,True,B,111,B,,True,O,,,787138.900000006,Qv0jhW3sqicqQvd7LfReAsI7nD73,1469.7999999821186,786755.5,786500.2000000179,prp,,False,1200.0,False,False,1214.5,T1→T2,785285.7000000179,111.0,638.6999999880791
Qv0jhW3sqicqQvd7LfReAsI7nD73,red,O,3,True,R,112,R,,True,O,,,788862.3000000119,Qv0jhW3sqicqQvd7LfReAsI7nD73,442.59999999403954,788594.599999994,788217.599999994,prp,,False,50.0,False,False,65.59999999403954,T1→T2,788152.0,112.0,644.7000000178814
Qv0jhW3sqicqQvd7LfReAsI7nD73,red,O,9,True,R,113,R,,True,O,,,791064.2000000179,Qv0jhW3sqicqQvd7LfReAsI7nD73,512.6999999880791,790402.5,789971.599999994,prp,,False,50.0,False,False,81.7999999821186,T1→T2,789889.8000000119,113.0,1092.6000000238419
Qv0jhW3sqicqQvd7LfReAsI7nD73,red,E,4,True,R,114,R,,True,E,,,793672.0,Qv0jhW3sqicqQvd7LfReAsI7nD73,1094.199999988079,793180.0,792424.7000000179,prp,,False,300.0,False,False,338.90000000596046,T1→T2,792085.8000000119,114.0,1247.2999999821186
Qv0jhW3sqicqQvd7LfReAsI7nD73,red,E,8,True,R,115,R,,True,E,,,795309.599999994,Qv0jhW3sqicqQvd7LfReAsI7nD73,559.5999999940395,795248.400000006,794773.900000006,prp,,False,50.0,False,False,85.09999999403954,T1→T2,794688.8000000119,115.0,535.6999999880791
Qv0jhW3sqicqQvd7LfReAsI7nD73,blue,E,2,True,B,116,B,,True,E,,,797221.8000000119,Qv0jhW3sqicqQvd7LfReAsI7nD73,816.6999999880791,797156.400000006,796654.3000000119,prp,,False,300.0,False,False,314.59999999403954,T1→T2,796339.7000000179,116.0,567.5
Qv0jhW3sqicqQvd7LfReAsI7nD73,blue,E,8,True,B,117,B,,True,E,,,799319.5,Qv0jhW3sqicqQvd7LfReAsI7nD73,1053.5,799291.7000000179,798859.599999994,prp,,False,600.0,False,False,621.3999999761581,T1→T2,798238.2000000179,117.0,459.90000000596046
Qv0jhW3sqicqQvd7LfReAsI7nD73,red,E,4,True,R,118,R,,True,E,,,802110.099999994,Qv0jhW3sqicqQvd7LfReAsI7nD73,1697.4000000059605,802038.2000000179,801553.5,prp,,False,1200.0,False,False,1212.699999988079,T1→T2,800340.8000000119,118.0,556.5999999940395
Qv0jhW3sqicqQvd7LfReAsI7nD73,red,E,2,True,R,119,R,,True,E,,,804001.5,Qv0jhW3sqicqQvd7LfReAsI7nD73,822.0999999940395,803961.900000006,803204.599999994,prp,,False,50.0,False,False,64.7999999821186,T1→T2,803139.8000000119,119.0,796.9000000059605
ORvIk1xRWIQmKuLVe6GXNouvAXx2,red,E,2,True,R,0,R,,True,E,,,521709.3000000715,ORvIk1xRWIQmKuLVe6GXNouvAXx2,1014.0,521463.10000002384,520513.8000000715,prp,,False,50.0,False,False,64.70000004768372,T1→T2,520449.10000002384,0.0,1195.5
ORvIk1xRWIQmKuLVe6GXNouvAXx2,blue,E,6,True,B,1,B,,True,E,,,523730.8000000715,ORvIk1xRWIQmKuLVe6GXNouvAXx2,708.1000000238419,523435.8000000715,522904.60000002384,prp,,False,150.0,False,False,176.89999997615814,T1→T2,522727.7000000477,1.0,826.2000000476837
ORvIk1xRWIQmKuLVe6GXNouvAXx2,red,O,9,True,R,2,R,,True,O,,,526661.3000000715,ORvIk1xRWIQmKuLVe6GXNouvAXx2,661.3999999761581,525425.8000000715,525982.9000000954,prp,,False,1200.0,False,False,1218.5,T1→T2,524764.4000000954,2.0,678.3999999761581
ORvIk1xRWIQmKuLVe6GXNouvAXx2,blue,O,5,True,B,3,R,,False,O,,,528675.7000000477,ORvIk1xRWIQmKuLVe6GXNouvAXx2,688.7999999523163,528384.0,527868.2000000477,prp,,False,150.0,False,False,173.0,T1→T2,527695.2000000477,3.0,807.5
ORvIk1xRWIQmKuLVe6GXNouvAXx2,red,O,9,True,R,4,R,,True,O,,,531110.0,ORvIk1xRWIQmKuLVe6GXNouvAXx2,924.1999999284744,530621.0,530014.1000000238,prp,,False,300.0,False,False,317.2999999523163,T1→T2,529696.8000000715,4.0,1095.8999999761581
ORvIk1xRWIQmKuLVe6GXNouvAXx2,blue,E,8,True,B,5,B,,True,E,,,534366.7000000477,ORvIk1xRWIQmKuLVe6GXNouvAXx2,972.8000000715256,533102.8000000715,533350.2000000477,prp,,False,1200.0,False,False,1220.2000000476837,T1→T2,532130.0,5.0,1016.5
ORvIk1xRWIQmKuLVe6GXNouvAXx2,red,E,2,True,R,6,R,,True,E,,,537580.6000000238,ORvIk1xRWIQmKuLVe6GXNouvAXx2,1059.5,536442.2000000477,536602.9000000954,prp,,False,1200.0,False,False,1220.2000000476837,T1→T2,535382.7000000477,6.0,977.6999999284744
ORvIk1xRWIQmKuLVe6GXNouvAXx2,red,E,6,True,R,7,R,,True,E,,,540331.7000000477,ORvIk1xRWIQmKuLVe6GXNouvAXx2,1131.0999999046326,539741.0,539225.3000000715,prp,,False,600.0,False,False,615.3999999761581,T1→T2,538609.9000000954,7.0,1106.3999999761581
ORvIk1xRWIQmKuLVe6GXNouvAXx2,blue,E,2,True,B,8,B,,True,E,,,542511.6000000238,ORvIk1xRWIQmKuLVe6GXNouvAXx2,786.7999999523163,542134.6000000238,541523.6000000238,prp,,False,150.0,False,False,175.79999995231628,T1→T2,541347.8000000715,8.0,988.0
ORvIk1xRWIQmKuLVe6GXNouvAXx2,red,E,4,True,R,9,R,,True,E,,,544629.1000000238,ORvIk1xRWIQmKuLVe6GXNouvAXx2,843.4000000953674,544377.4000000954,543598.7000000477,prp,,False,50.0,False,False,64.70000004768372,T1→T2,543534.0,9.0,1030.3999999761581
ORvIk1xRWIQmKuLVe6GXNouvAXx2,red,E,4,True,R,10,R,,True,E,,,546815.0,ORvIk1xRWIQmKuLVe6GXNouvAXx2,764.5,546418.4000000954,546268.5,prp,,False,600.0,False,False,614.5999999046326,T1→T2,545653.9000000954,10.0,546.5
ORvIk1xRWIQmKuLVe6GXNouvAXx2,blue,E,2,True,B,11,B,,True,E,,,548803.1000000238,ORvIk1xRWIQmKuLVe6GXNouvAXx2,628.0,548471.0,548165.5,prp,,False,300.0,False,False,322.5,T1→T2,547843.0,11.0,637.6000000238419
ORvIk1xRWIQmKuLVe6GXNouvAXx2,red,O,3,True,R,12,R,,True,O,,,550936.3000000715,ORvIk1xRWIQmKuLVe6GXNouvAXx2,727.4000000953674,550552.4000000954,550437.5,prp,,False,600.0,False,False,612.5,T1→T2,549825.0,12.0,498.8000000715256
ORvIk1xRWIQmKuLVe6GXNouvAXx2,blue,O,7,True,B,13,B,,True,O,,,554090.4000000954,ORvIk1xRWIQmKuLVe6GXNouvAXx2,1213.5,553170.4000000954,552022.1000000238,prp,,False,50.0,False,False,65.19999992847443,T1→T2,551956.9000000954,13.0,2068.3000000715256
ORvIk1xRWIQmKuLVe6GXNouvAXx2,red,E,2,True,R,14,B,,False,E,,,556799.5,ORvIk1xRWIQmKuLVe6GXNouvAXx2,728.5,555844.0,556331.6000000238,prp,,False,1200.0,False,False,1216.1000000238419,T1→T2,555115.5,14.0,467.89999997615814
ORvIk1xRWIQmKuLVe6GXNouvAXx2,blue,O,1,True,B,15,B,,True,O,,,559689.2000000477,ORvIk1xRWIQmKuLVe6GXNouvAXx2,851.3000000715256,558679.3000000715,559042.4000000954,prp,,False,1200.0,False,False,1214.4000000953674,T1→T2,557828.0,15.0,646.7999999523163
ORvIk1xRWIQmKuLVe6GXNouvAXx2,blue,E,6,True,B,16,timeout,,False,E,,,,ORvIk1xRWIQmKuLVe6GXNouvAXx2,1989.2000000476837,562706.4000000954,560790.9000000954,prp,,False,50.0,False,True,73.70000004768372,T1_only,560717.2000000477,16.0,
ORvIk1xRWIQmKuLVe6GXNouvAXx2,red,O,7,True,R,17,R,,True,O,,,566680.4000000954,ORvIk1xRWIQmKuLVe6GXNouvAXx2,1400.6000000238419,566223.3000000715,565430.1000000238,prp,,False,600.0,False,False,607.3999999761581,T1→T2,564822.7000000477,17.0,1250.3000000715256
ORvIk1xRWIQmKuLVe6GXNouvAXx2,red,O,5,True,R,18,R,,True,O,,,568747.5,ORvIk1xRWIQmKuLVe6GXNouvAXx2,652.8999999761581,568358.6000000238,567774.8000000715,prp,,False,50.0,False,False,69.10000002384186,T1→T2,567705.7000000477,18.0,972.6999999284744
ORvIk1xRWIQmKuLVe6GXNouvAXx2,blue,O,3,True,B,19,B,,True,O,,,571525.6000000238,ORvIk1xRWIQmKuLVe6GXNouvAXx2,1012.5,570784.9000000954,571019.4000000954,prp,,False,1200.0,False,False,1247.0,T1→T2,569772.4000000954,19.0,506.1999999284744
ORvIk1xRWIQmKuLVe6GXNouvAXx2,red,O,7,True,R,20,R,,True,O,,,574313.9000000954,ORvIk1xRWIQmKuLVe6GXNouvAXx2,636.0,573189.2000000477,572860.4000000954,prp,,False,300.0,False,False,307.2000000476837,T1→T2,572553.2000000477,20.0,1453.5
ORvIk1xRWIQmKuLVe6GXNouvAXx2,blue,E,8,True,B,21,B,,True,E,,,577058.5,ORvIk1xRWIQmKuLVe6GXNouvAXx2,899.6000000238419,576233.9000000954,576552.4000000954,prp,,False,1200.0,False,False,1218.1000000238419,T1→T2,575334.3000000715,21.0,506.09999990463257
ORvIk1xRWIQmKuLVe6GXNouvAXx2,red,E,6,True,R,22,R,,True,E,,,580104.5,ORvIk1xRWIQmKuLVe6GXNouvAXx2,1144.6999999284744,579232.1000000238,578393.7000000477,prp,,False,300.0,False,False,306.2999999523163,T1→T2,578087.4000000954,22.0,1710.7999999523163
ORvIk1xRWIQmKuLVe6GXNouvAXx2,blue,O,9,True,B,23,B,,True,O,,,583147.6000000238,ORvIk1xRWIQmKuLVe6GXNouvAXx2,1493.8999999761581,582627.5,581751.1000000238,prp,,False,600.0,False,False,617.5,T1→T2,581133.6000000238,23.0,1396.5
ORvIk1xRWIQmKuLVe6GXNouvAXx2,blue,E,4,True,B,24,B,,True,E,,,585769.9000000954,ORvIk1xRWIQmKuLVe6GXNouvAXx2,791.6000000238419,584964.8000000715,584239.0,prp,,False,50.0,False,False,65.79999995231628,T1→T2,584173.2000000477,24.0,1530.9000000953674
ORvIk1xRWIQmKuLVe6GXNouvAXx2,blue,O,1,True,B,25,B,,True,O,,,588286.4000000954,ORvIk1xRWIQmKuLVe6GXNouvAXx2,876.3000000715256,587671.9000000954,586960.4000000954,prp,,False,150.0,False,False,164.80000007152557,T1→T2,586795.6000000238,25.0,1326.0
ORvIk1xRWIQmKuLVe6GXNouvAXx2,blue,O,1,True,B,26,B,,True,O,,,590469.6000000238,ORvIk1xRWIQmKuLVe6GXNouvAXx2,635.1000000238419,589950.9000000954,589921.4000000954,prp,,False,600.0,False,False,605.6000000238419,T1→T2,589315.8000000715,26.0,548.1999999284744
ORvIk1xRWIQmKuLVe6GXNouvAXx2,blue,O,7,True,B,27,B,,True,O,,,592860.4000000954,ORvIk1xRWIQmKuLVe6GXNouvAXx2,586.0999999046326,592079.0,591676.3000000715,prp,,False,150.0,False,False,183.39999997615814,T1→T2,591492.9000000954,27.0,1184.1000000238419
ORvIk1xRWIQmKuLVe6GXNouvAXx2,blue,E,2,True,B,28,B,,True,E,,,595565.9000000954,ORvIk1xRWIQmKuLVe6GXNouvAXx2,927.8999999761581,594812.1000000238,595091.1000000238,prp,,False,1200.0,False,False,1206.8999999761581,T1→T2,593884.2000000477,28.0,474.8000000715256
ORvIk1xRWIQmKuLVe6GXNouvAXx2,blue,E,6,True,B,29,B,,True,E,,,597657.2000000477,ORvIk1xRWIQmKuLVe6GXNouvAXx2,742.7999999523163,597333.0,596897.8000000715,prp,,False,300.0,False,False,307.60000002384186,T1→T2,596590.2000000477,29.0,759.3999999761581
ORvIk1xRWIQmKuLVe6GXNouvAXx2,blue,O,3,True,B,30,B,,True,O,,,609653.3000000715,ORvIk1xRWIQmKuLVe6GXNouvAXx2,657.3999999761581,609348.5,608759.1000000238,prp,,False,50.0,False,False,68.0,T1→T2,608691.1000000238,30.0,894.2000000476837
ORvIk1xRWIQmKuLVe6GXNouvAXx2,blue,E,4,True,B,31,B,,True,E,,,612330.1000000238,ORvIk1xRWIQmKuLVe6GXNouvAXx2,536.1000000238419,611219.3000000715,611902.0,prp,,False,1200.0,False,False,1218.7999999523163,T1→T2,610683.2000000477,31.0,428.10000002384186
ORvIk1xRWIQmKuLVe6GXNouvAXx2,blue,O,8,False,B,32,B,,True,E,,,615084.5,ORvIk1xRWIQmKuLVe6GXNouvAXx2,659.8999999761581,614011.8000000715,613958.2000000477,prp,,False,600.0,False,False,606.2999999523163,T1→T2,613351.9000000954,32.0,1126.2999999523163
ORvIk1xRWIQmKuLVe6GXNouvAXx2,blue,O,9,True,B,33,B,,True,O,,,617419.9000000954,ORvIk1xRWIQmKuLVe6GXNouvAXx2,559.0,616660.9000000954,616729.4000000954,prp,,False,600.0,False,False,627.5,T1→T2,616101.9000000954,33.0,690.5
ORvIk1xRWIQmKuLVe6GXNouvAXx2,red,O,1,True,R,34,R,,True,O,,,619413.5,ORvIk1xRWIQmKuLVe6GXNouvAXx2,490.5,618926.9000000954,618743.5,prp,,False,300.0,False,False,307.09999990463257,T1→T2,618436.4000000954,34.0,670.0
ORvIk1xRWIQmKuLVe6GXNouvAXx2,blue,E,2,True,B,35,B,,True,E,,,621449.1000000238,ORvIk1xRWIQmKuLVe6GXNouvAXx2,635.1000000238419,621073.4000000954,621043.6000000238,prp,,False,600.0,False,False,605.2999999523163,T1→T2,620438.3000000715,35.0,405.5
ORvIk1xRWIQmKuLVe6GXNouvAXx2,blue,O,9,True,B,36,B,,True,O,,,624246.7000000477,ORvIk1xRWIQmKuLVe6GXNouvAXx2,828.0,623318.9000000954,623699.4000000954,prp,,False,1200.0,False,False,1208.5,T1→T2,622490.9000000954,36.0,547.2999999523163
ORvIk1xRWIQmKuLVe6GXNouvAXx2,red,O,7,True,R,37,R,,True,O,,,626352.3000000715,ORvIk1xRWIQmKuLVe6GXNouvAXx2,751.8999999761581,626026.3000000715,625881.2000000477,prp,,False,600.0,False,False,606.7999999523163,T1→T2,625274.4000000954,37.0,471.10000002384186
ORvIk1xRWIQmKuLVe6GXNouvAXx2,blue,O,5,True,B,38,B,,True,O,,,628322.2000000477,ORvIk1xRWIQmKuLVe6GXNouvAXx2,690.9000000953674,628060.9000000954,627546.7000000477,prp,,False,150.0,False,False,176.70000004768372,T1→T2,627370.0,38.0,775.5
ORvIk1xRWIQmKuLVe6GXNouvAXx2,red,E,8,True,R,39,B,,False,E,,,630304.5,ORvIk1xRWIQmKuLVe6GXNouvAXx2,497.40000009536743,629853.4000000954,629980.0,prp,,False,600.0,False,False,624.0,T1→T2,629356.0,39.0,324.5
ORvIk1xRWIQmKuLVe6GXNouvAXx2,red,O,1,True,R,40,R,,True,O,,,632904.3000000715,ORvIk1xRWIQmKuLVe6GXNouvAXx2,539.0,631861.2000000477,631644.8000000715,prp,,False,300.0,False,False,322.60000002384186,T1→T2,631322.2000000477,40.0,1259.5
ORvIk1xRWIQmKuLVe6GXNouvAXx2,red,O,3,True,R,41,R,,True,O,,,635994.4000000954,ORvIk1xRWIQmKuLVe6GXNouvAXx2,697.1999999284744,634624.6000000238,634236.1000000238,prp,,False,300.0,False,False,308.6999999284744,T1→T2,633927.4000000954,41.0,1758.3000000715256
ORvIk1xRWIQmKuLVe6GXNouvAXx2,red,E,4,True,R,42,R,,True,E,,,638505.4000000954,ORvIk1xRWIQmKuLVe6GXNouvAXx2,845.0,637859.5,637630.5,prp,,False,600.0,False,False,616.0,T1→T2,637014.5,42.0,874.9000000953674
ORvIk1xRWIQmKuLVe6GXNouvAXx2,red,E,2,True,R,43,R,,True,E,,,640414.5,ORvIk1xRWIQmKuLVe6GXNouvAXx2,580.0,640105.2000000477,639698.0,prp,,False,150.0,False,False,172.79999995231628,T1→T2,639525.2000000477,43.0,716.5
ORvIk1xRWIQmKuLVe6GXNouvAXx2,blue,E,2,True,B,44,B,,True,E,,,642381.9000000954,ORvIk1xRWIQmKuLVe6GXNouvAXx2,508.3000000715256,641944.3000000715,642063.3000000715,prp,,False,600.0,False,False,627.3000000715256,T1→T2,641436.0,44.0,318.60000002384186
ORvIk1xRWIQmKuLVe6GXNouvAXx2,blue,E,6,True,B,45,B,,True,E,,,644569.3000000715,ORvIk1xRWIQmKuLVe6GXNouvAXx2,655.0,644069.7000000477,644029.4000000954,prp,,False,600.0,False,False,614.7000000476837,T1→T2,643414.7000000477,45.0,539.8999999761581
ORvIk1xRWIQmKuLVe6GXNouvAXx2,red,E,4,True,R,46,R,,True,E,,,646491.7000000477,ORvIk1xRWIQmKuLVe6GXNouvAXx2,573.2000000476837,646161.3000000715,645894.5,prp,,False,300.0,False,False,306.39999997615814,T1→T2,645588.1000000238,46.0,597.2000000476837
ORvIk1xRWIQmKuLVe6GXNouvAXx2,red,O,9,True,R,47,R,,True,O,,,650005.3000000715,ORvIk1xRWIQmKuLVe6GXNouvAXx2,1819.6999999284744,649347.1000000238,647694.5,prp,,False,150.0,False,False,167.09999990463257,T1→T2,647527.4000000954,47.0,2310.8000000715256
ORvIk1xRWIQmKuLVe6GXNouvAXx2,blue,E,2,True,B,48,B,,True,E,,,653016.7000000477,ORvIk1xRWIQmKuLVe6GXNouvAXx2,1334.3000000715256,652357.9000000954,651640.3000000715,prp,,False,600.0,False,False,616.7000000476837,T1→T2,651023.6000000238,48.0,1376.3999999761581
ORvIk1xRWIQmKuLVe6GXNouvAXx2,red,O,9,True,R,49,R,,True,O,,,655130.2000000477,ORvIk1xRWIQmKuLVe6GXNouvAXx2,520.1000000238419,654555.3000000715,654665.9000000954,prp,,False,600.0,False,False,630.7000000476837,T1→T2,654035.2000000477,49.0,464.2999999523163
ORvIk1xRWIQmKuLVe6GXNouvAXx2,red,E,6,True,R,50,R,,True,E,,,657878.8000000715,ORvIk1xRWIQmKuLVe6GXNouvAXx2,1252.2000000476837,657406.7000000477,656461.5,prp,,False,300.0,False,False,307.0,T1→T2,656154.5,50.0,1417.3000000715256
ORvIk1xRWIQmKuLVe6GXNouvAXx2,blue,O,7,True,B,51,B,,True,O,,,660022.9000000954,ORvIk1xRWIQmKuLVe6GXNouvAXx2,778.5999999046326,659677.5,659515.4000000954,prp,,False,600.0,False,False,616.5,T1→T2,658898.9000000954,51.0,507.5
ORvIk1xRWIQmKuLVe6GXNouvAXx2,blue,O,3,True,B,52,B,,True,O,,,662728.9000000954,ORvIk1xRWIQmKuLVe6GXNouvAXx2,600.1000000238419,661643.2000000477,662264.0,prp,,False,1200.0,False,False,1220.8999999761581,T1→T2,661043.1000000238,52.0,464.90000009536743
ORvIk1xRWIQmKuLVe6GXNouvAXx2,blue,O,5,True,B,53,B,,True,O,,,664806.8000000715,ORvIk1xRWIQmKuLVe6GXNouvAXx2,663.2000000476837,664429.7000000477,664385.3000000715,prp,,False,600.0,False,False,618.8000000715256,T1→T2,663766.5,53.0,421.5
ORvIk1xRWIQmKuLVe6GXNouvAXx2,blue,O,3,True,B,54,B,,True,O,,,667493.2000000477,ORvIk1xRWIQmKuLVe6GXNouvAXx2,488.2999999523163,666318.2000000477,667042.2000000477,prp,,False,1200.0,False,False,1212.2999999523163,T1→T2,665829.9000000954,54.0,451.0
ORvIk1xRWIQmKuLVe6GXNouvAXx2,blue,O,2,False,B,55,B,,True,E,,,670156.2000000477,ORvIk1xRWIQmKuLVe6GXNouvAXx2,875.7000000476837,669398.2000000477,668700.5,prp,,False,150.0,False,False,178.0,T1→T2,668522.5,55.0,1455.7000000476837
ORvIk1xRWIQmKuLVe6GXNouvAXx2,blue,O,7,True,B,56,B,,True,O,,,672242.0,ORvIk1xRWIQmKuLVe6GXNouvAXx2,834.5999999046326,672012.0,671245.9000000954,prp,,False,50.0,False,False,68.5,T1→T2,671177.4000000954,56.0,996.0999999046326
ORvIk1xRWIQmKuLVe6GXNouvAXx2,red,O,1,True,R,57,R,,True,O,,,674199.8000000715,ORvIk1xRWIQmKuLVe6GXNouvAXx2,476.7999999523163,673736.1000000238,673580.9000000954,prp,,False,300.0,False,False,321.60000002384186,T1→T2,673259.3000000715,57.0,618.8999999761581
ORvIk1xRWIQmKuLVe6GXNouvAXx2,red,O,1,True,R,58,R,,True,O,,,676746.1000000238,ORvIk1xRWIQmKuLVe6GXNouvAXx2,1112.0,676346.2000000477,675300.6000000238,prp,,False,50.0,False,False,66.39999997615814,T1→T2,675234.2000000477,58.0,1445.5
ORvIk1xRWIQmKuLVe6GXNouvAXx2,blue,O,5,True,B,59,B,,True,O,,,679315.0,ORvIk1xRWIQmKuLVe6GXNouvAXx2,591.7000000476837,678369.7000000477,678994.9000000954,prp,,False,1200.0,False,False,1216.9000000953674,T1→T2,677778.0,59.0,320.09999990463257
ORvIk1xRWIQmKuLVe6GXNouvAXx2,red,E,8,True,R,60,R,,True,E,,,691227.0,ORvIk1xRWIQmKuLVe6GXNouvAXx2,565.8999999761581,690911.5,690518.4000000954,prp,,False,150.0,False,False,172.80000007152557,T1→T2,690345.6000000238,60.0,708.5999999046326
ORvIk1xRWIQmKuLVe6GXNouvAXx2,blue,O,1,True,B,61,B,,True,O,,,692912.7000000477,ORvIk1xRWIQmKuLVe6GXNouvAXx2,426.7000000476837,692668.7000000477,692319.2000000477,prp,,False,50.0,False,False,77.20000004768372,T1→T2,692242.0,61.0,593.5
ORvIk1xRWIQmKuLVe6GXNouvAXx2,red,E,6,True,R,62,R,,True,E,,,694624.7000000477,ORvIk1xRWIQmKuLVe6GXNouvAXx2,490.5,694438.2000000477,694119.7000000477,prp,,False,150.0,False,False,172.0,T1→T2,693947.7000000477,62.0,505.0
ORvIk1xRWIQmKuLVe6GXNouvAXx2,red,O,1,True,R,63,R,,True,O,,,696701.5,ORvIk1xRWIQmKuLVe6GXNouvAXx2,918.1000000238419,696556.6000000238,695716.3000000715,prp,,False,50.0,False,False,77.80000007152557,T1→T2,695638.5,63.0,985.1999999284744
ORvIk1xRWIQmKuLVe6GXNouvAXx2,blue,E,5,False,B,64,B,,True,O,,,700095.8000000715,ORvIk1xRWIQmKuLVe6GXNouvAXx2,537.1000000238419,698265.8000000715,698035.7000000477,prp,,False,300.0,False,False,307.0,T1→T2,697728.7000000477,64.0,2060.100000023842
ORvIk1xRWIQmKuLVe6GXNouvAXx2,red,E,8,True,R,65,R,,True,E,,,702159.4000000954,ORvIk1xRWIQmKuLVe6GXNouvAXx2,828.0,701940.0,701429.4000000954,prp,,False,300.0,False,False,317.40000009536743,T1→T2,701112.0,65.0,730.0
ORvIk1xRWIQmKuLVe6GXNouvAXx2,blue,E,8,True,B,66,B,,True,E,,,703989.8000000715,ORvIk1xRWIQmKuLVe6GXNouvAXx2,529.2999999523163,703705.2000000477,703498.3000000715,prp,,False,300.0,False,False,322.39999997615814,T1→T2,703175.9000000954,66.0,491.5
ORvIk1xRWIQmKuLVe6GXNouvAXx2,blue,O,8,False,B,67,B,,True,E,,,706711.4000000954,ORvIk1xRWIQmKuLVe6GXNouvAXx2,666.0,705684.7000000477,705641.7000000477,prp,,False,600.0,False,False,623.0,T1→T2,705018.7000000477,67.0,1069.7000000476837
ORvIk1xRWIQmKuLVe6GXNouvAXx2,blue,E,4,True,B,68,B,,True,E,,,708919.8000000715,ORvIk1xRWIQmKuLVe6GXNouvAXx2,946.2999999523163,708679.5,707805.1000000238,prp,,False,50.0,False,False,71.89999997615814,T1→T2,707733.2000000477,68.0,1114.7000000476837
ORvIk1xRWIQmKuLVe6GXNouvAXx2,red,O,1,True,R,69,R,,True,O,,,710939.9000000954,ORvIk1xRWIQmKuLVe6GXNouvAXx2,800.5,710738.4000000954,710121.7000000477,prp,,False,150.0,False,False,183.79999995231628,T1→T2,709937.9000000954,69.0,818.2000000476837
ORvIk1xRWIQmKuLVe6GXNouvAXx2,blue,O,7,True,B,70,B,,True,O,,,713096.2000000477,ORvIk1xRWIQmKuLVe6GXNouvAXx2,865.6000000238419,712835.4000000954,712278.6000000238,prp,,False,300.0,False,False,308.7999999523163,T1→T2,711969.8000000715,70.0,817.6000000238419
ORvIk1xRWIQmKuLVe6GXNouvAXx2,blue,E,4,True,B,71,B,,True,E,,,714963.1000000238,ORvIk1xRWIQmKuLVe6GXNouvAXx2,569.2000000476837,714685.9000000954,714436.5,prp,,False,300.0,False,False,319.7999999523163,T1→T2,714116.7000000477,71.0,526.6000000238419
ORvIk1xRWIQmKuLVe6GXNouvAXx2,blue,O,7,True,B,72,B,,True,O,,,717296.1000000238,ORvIk1xRWIQmKuLVe6GXNouvAXx2,614.1999999284744,716614.6000000238,716171.3000000715,prp,,False,150.0,False,False,170.89999997615814,T1→T2,716000.4000000954,72.0,1124.7999999523163
ORvIk1xRWIQmKuLVe6GXNouvAXx2,red,E,8,True,R,73,R,,True,E,,,720347.5,ORvIk1xRWIQmKuLVe6GXNouvAXx2,1635.2000000476837,719963.9000000954,718505.2000000477,prp,,False,150.0,False,False,176.5,T1→T2,718328.7000000477,73.0,1842.2999999523163
ORvIk1xRWIQmKuLVe6GXNouvAXx2,blue,E,2,True,B,74,B,,True,E,,,722953.2000000477,ORvIk1xRWIQmKuLVe6GXNouvAXx2,962.1000000238419,722342.6000000238,721700.5,prp,,False,300.0,False,False,320.0,T1→T2,721380.5,74.0,1252.7000000476837
ORvIk1xRWIQmKuLVe6GXNouvAXx2,red,E,2,True,R,75,R,,True,E,,,725428.2000000477,ORvIk1xRWIQmKuLVe6GXNouvAXx2,1032.6000000238419,725016.2000000477,724157.5,prp,,False,150.0,False,False,173.89999997615814,T1→T2,723983.6000000238,75.0,1270.7000000476837
ORvIk1xRWIQmKuLVe6GXNouvAXx2,blue,E,6,True,B,76,B,,True,E,,,727553.9000000954,ORvIk1xRWIQmKuLVe6GXNouvAXx2,900.8999999761581,727356.5,726519.0,prp,,False,50.0,False,False,63.39999997615814,T1→T2,726455.6000000238,76.0,1034.9000000953674
ORvIk1xRWIQmKuLVe6GXNouvAXx2,red,O,9,True,R,77,R,,True,O,,,730238.7000000477,ORvIk1xRWIQmKuLVe6GXNouvAXx2,637.7000000476837,729220.7000000477,729805.3000000715,prp,,False,1200.0,False,False,1222.3000000715256,T1→T2,728583.0,77.0,433.39999997615814
ORvIk1xRWIQmKuLVe6GXNouvAXx2,blue,O,7,True,B,78,R,,False,O,,,732768.7000000477,ORvIk1xRWIQmKuLVe6GXNouvAXx2,1216.0,732471.9000000954,731320.5,prp,,False,50.0,False,False,64.59999990463257,T1→T2,731255.9000000954,78.0,1448.2000000476837
ORvIk1xRWIQmKuLVe6GXNouvAXx2,red,E,4,True,R,79,R,,True,E,,,735583.4000000954,ORvIk1xRWIQmKuLVe6GXNouvAXx2,1363.0,735153.2000000477,733856.5,prp,,False,50.0,False,False,66.29999995231628,T1→T2,733790.2000000477,79.0,1726.9000000953674
ORvIk1xRWIQmKuLVe6GXNouvAXx2,blue,O,5,True,B,80,B,,True,O,,,739836.5,ORvIk1xRWIQmKuLVe6GXNouvAXx2,2810.899999976158,739421.7000000477,736933.0,prp,,False,300.0,False,False,322.1999999284744,T1→T2,736610.8000000715,80.0,2903.5
ORvIk1xRWIQmKuLVe6GXNouvAXx2,red,E,8,True,R,81,R,,True,E,,,741737.4000000954,ORvIk1xRWIQmKuLVe6GXNouvAXx2,601.0,741486.9000000954,741056.9000000954,prp,,False,150.0,False,False,171.0,T1→T2,740885.9000000954,81.0,680.5
