participantId,trialIndex,blockIndex,chosenCard,trialIndexInBlock,reactionTimeMs,cardShape,timestamp,cardNumber,correct,cardColor,targetCardPath,stageName,ruleAtThatTime,participant_id,stim_onset_ms,task,block_index,cond,extra,timeout,isNPE,isPE,resp_time_ms,rt_ms,isPR,trial_index
7QYZfcjgZHcVB941oHiLGGPTk7U2,0,0.0,four_red_triangle,0,10369.199999928474,star,2025-06-23T15:28:12.150,4,False,black,assets/images/4blackstar.svg,Stage.blockTrials,colour,,,,,,,,,,,,,
7QYZfcjgZHcVB941oHiLGGPTk7U2,1,0.0,three_blue_star,1,3983.600000023842,star,2025-06-23T15:28:17.134,1,False,black,assets/images/1blackstar.svg,Stage.blockTrials,colour,,,,,,,,,,,,,
7QYZfcjgZHcVB941oHiLGGPTk7U2,2,0.0,one_yellow_circle,2,6907.299999952316,rectangle,2025-06-23T15:28:25.047,3,True,yellow,assets/images/3yellowrectangle.svg,Stage.blockTrials,colour,,,,,,,,,,,,,
7QYZfcjgZHcVB941oHiLGGPTk7U2,3,0.0,one_yellow_circle,3,1249.0999999046326,rectangle,2025-06-23T15:28:27.304,2,True,yellow,assets/images/2yellowrectangle.svg,Stage.blockTrials,colour,,,,,,,,,,,,,
7QYZfcjgZHcVB941oHiLGGPTk7U2,4,0.0,four_red_triangle,4,1471.7999999523163,triangle,2025-06-23T15:28:29.791,3,True,red,assets/images/3redtriangle.svg,Stage.blockTrials,colour,,,,,,,,,,,,,
7QYZfcjgZHcVB941oHiLGGPTk7U2,5,0.0,two_black_rectangle,5,2961.0,triangle,2025-06-23T15:28:33.760,1,True,black,assets/images/1blacktriangle.svg,Stage.blockTrials,colour,,,,,,,,,,,,,
7QYZfcjgZHcVB941oHiLGGPTk7U2,6,0.0,three_blue_star,6,2233.7999999523163,circle,2025-06-23T15:28:37.008,2,True,blue,assets/images/2bluecircle.svg,Stage.blockTrials,colour,,,,,,,,,,,,,
7QYZfcjgZHcVB941oHiLGGPTk7U2,7,0.0,one_yellow_circle,7,1241.3999999761581,star,2025-06-23T15:28:39.257,4,True,yellow,assets/images/4yellowstar.svg,Stage.blockTrials,colour,,,,,,,,,,,,,
7QYZfcjgZHcVB941oHiLGGPTk7U2,8,0.0,three_blue_star,8,1699.1999999284744,circle,2025-06-23T15:28:41.961,4,True,blue,assets/images/4bluecircle.svg,Stage.blockTrials,colour,,,,,,,,,,,,,
7QYZfcjgZHcVB941oHiLGGPTk7U2,9,0.0,four_red_triangle,9,1785.5,rectangle,2025-06-23T15:28:44.755,1,True,red,assets/images/1redrectangle.svg,Stage.blockTrials,colour,,,,,,,,,,,,,
7QYZfcjgZHcVB941oHiLGGPTk7U2,10,0.0,four_red_triangle,10,995.6999999284744,rectangle,2025-06-23T15:28:46.763,2,True,red,assets/images/2redrectangle.svg,Stage.blockTrials,colour,,,,,,,,,,,,,
7QYZfcjgZHcVB941oHiLGGPTk7U2,11,0.0,one_yellow_circle,11,1368.8000000715256,circle,2025-06-23T15:28:49.146,2,True,yellow,assets/images/2yellowcircle.svg,Stage.blockTrials,colour,,,,,,,,,,,,,
7QYZfcjgZHcVB941oHiLGGPTk7U2,12,0.0,one_yellow_circle,11,789.5,circle,2025-06-23T15:28:50.938,2,True,yellow,assets/images/2yellowcircle.svg,Stage.blockTrials,shape,,,,,,,,,,,,,
7QYZfcjgZHcVB941oHiLGGPTk7U2,13,0.0,two_black_rectangle,12,1288.7000000476837,circle,2025-06-23T15:28:53.242,4,False,black,assets/images/4blackcircle.svg,Stage.blockTrials,shape,,,,,,,,,,,,,
7QYZfcjgZHcVB941oHiLGGPTk7U2,14,0.0,three_blue_star,13,1155.6999999284744,triangle,2025-06-23T15:28:55.410,1,False,blue,assets/images/1bluetriangle.svg,Stage.blockTrials,shape,,,,,,,,,,,,,
7QYZfcjgZHcVB941oHiLGGPTk7U2,15,0.0,four_red_triangle,14,4159.100000023842,triangle,2025-06-23T15:29:00.579,4,True,red,assets/images/4redtriangle.svg,Stage.blockTrials,shape,,,,,,,,,,,,,
7QYZfcjgZHcVB941oHiLGGPTk7U2,16,0.0,three_blue_star,15,2129.2999999523163,triangle,2025-06-23T15:29:03.715,3,False,blue,assets/images/3bluetriangle.svg,Stage.blockTrials,shape,,,,,,,,,,,,,
7QYZfcjgZHcVB941oHiLGGPTk7U2,17,0.0,four_red_triangle,16,6330.799999952316,star,2025-06-23T15:29:11.060,4,False,blue,assets/images/4bluestar.svg,Stage.blockTrials,shape,,,,,,,,,,,,,
7QYZfcjgZHcVB941oHiLGGPTk7U2,18,0.0,one_yellow_circle,17,5184.900000095367,circle,2025-06-23T15:29:17.254,1,True,yellow,assets/images/1yellowcircle.svg,Stage.blockTrials,shape,,,,,,,,,,,,,
7QYZfcjgZHcVB941oHiLGGPTk7U2,19,0.0,four_red_triangle,18,1529.7999999523163,triangle,2025-06-23T15:29:19.797,4,True,yellow,assets/images/4yellowtriangle.svg,Stage.blockTrials,shape,,,,,,,,,,,,,
7QYZfcjgZHcVB941oHiLGGPTk7U2,20,0.0,four_red_triangle,19,1289.8999999761581,triangle,2025-06-23T15:29:22.102,1,True,red,assets/images/1redtriangle.svg,Stage.blockTrials,shape,,,,,,,,,,,,,
7QYZfcjgZHcVB941oHiLGGPTk7U2,21,0.0,two_black_rectangle,20,1845.8999999761581,rectangle,2025-06-23T15:29:24.958,4,True,red,assets/images/4redrectangle.svg,Stage.blockTrials,shape,,,,,,,,,,,,,
7QYZfcjgZHcVB941oHiLGGPTk7U2,22,0.0,two_black_rectangle,21,1604.4000000953674,rectangle,2025-06-23T15:29:27.574,4,True,blue,assets/images/4bluerectangle.svg,Stage.blockTrials,shape,,,,,,,,,,,,,
7QYZfcjgZHcVB941oHiLGGPTk7U2,23,0.0,four_red_triangle,22,1182.0,triangle,2025-06-23T15:29:29.758,2,True,red,assets/images/2redtriangle.svg,Stage.blockTrials,shape,,,,,,,,,,,,,
7QYZfcjgZHcVB941oHiLGGPTk7U2,24,0.0,three_blue_star,23,1869.5999999046326,star,2025-06-23T15:29:32.639,4,True,red,assets/images/4redstar.svg,Stage.blockTrials,shape,,,,,,,,,,,,,
7QYZfcjgZHcVB941oHiLGGPTk7U2,25,0.0,one_yellow_circle,24,1624.7000000476837,circle,2025-06-23T15:29:35.271,1,True,red,assets/images/1redcircle.svg,Stage.blockTrials,shape,,,,,,,,,,,,,
7QYZfcjgZHcVB941oHiLGGPTk7U2,26,0.0,three_blue_star,25,2015.6000000238419,star,2025-06-23T15:29:38.296,2,True,black,assets/images/2blackstar.svg,Stage.blockTrials,shape,,,,,,,,,,,,,
7QYZfcjgZHcVB941oHiLGGPTk7U2,27,0.0,two_black_rectangle,26,1668.8999999761581,rectangle,2025-06-23T15:29:40.976,1,True,yellow,assets/images/1yellowrectangle.svg,Stage.blockTrials,shape,,,,,,,,,,,,,
7QYZfcjgZHcVB941oHiLGGPTk7U2,28,0.0,two_black_rectangle,26,1340.1000000238419,rectangle,2025-06-23T15:29:43.321,1,False,yellow,assets/images/1yellowrectangle.svg,Stage.blockTrials,number,,,,,,,,,,,,,
7QYZfcjgZHcVB941oHiLGGPTk7U2,29,0.0,three_blue_star,27,2638.8000000715256,rectangle,2025-06-23T15:29:46.969,1,False,blue,assets/images/1bluerectangle.svg,Stage.blockTrials,number,,,,,,,,,,,,,
7QYZfcjgZHcVB941oHiLGGPTk7U2,30,0.0,three_blue_star,28,2466.8000000715256,circle,2025-06-23T15:29:50.442,3,True,blue,assets/images/3bluecircle.svg,Stage.blockTrials,number,,,,,,,,,,,,,
7QYZfcjgZHcVB941oHiLGGPTk7U2,31,0.0,two_black_rectangle,29,1700.2000000476837,star,2025-06-23T15:29:53.145,2,True,red,assets/images/2redstar.svg,Stage.blockTrials,number,,,,,,,,,,,,,
7QYZfcjgZHcVB941oHiLGGPTk7U2,32,0.0,four_red_triangle,30,2245.0999999046326,circle,2025-06-23T15:29:56.402,4,True,yellow,assets/images/4yellowcircle.svg,Stage.blockTrials,number,,,,,,,,,,,,,
7QYZfcjgZHcVB941oHiLGGPTk7U2,33,0.0,four_red_triangle,31,1165.1000000238419,triangle,2025-06-23T15:29:58.571,4,True,blue,assets/images/4bluetriangle.svg,Stage.blockTrials,number,,,,,,,,,,,,,
7QYZfcjgZHcVB941oHiLGGPTk7U2,34,0.0,two_black_rectangle,32,1114.5,triangle,2025-06-23T15:30:00.698,2,True,yellow,assets/images/2yellowtriangle.svg,Stage.blockTrials,number,,,,,,,,,,,,,
7QYZfcjgZHcVB941oHiLGGPTk7U2,35,0.0,four_red_triangle,33,1444.8999999761581,rectangle,2025-06-23T15:30:03.147,4,True,yellow,assets/images/4yellowrectangle.svg,Stage.blockTrials,number,,,,,,,,,,,,,
7QYZfcjgZHcVB941oHiLGGPTk7U2,36,0.0,one_yellow_circle,34,1340.0999999046326,triangle,2025-06-23T15:30:05.499,1,True,yellow,assets/images/1yellowtriangle.svg,Stage.blockTrials,number,,,,,,,,,,,,,
7QYZfcjgZHcVB941oHiLGGPTk7U2,37,0.0,three_blue_star,35,1024.3000000715256,star,2025-06-23T15:30:07.532,3,True,red,assets/images/3redstar.svg,Stage.blockTrials,number,,,,,,,,,,,,,
7QYZfcjgZHcVB941oHiLGGPTk7U2,38,0.0,three_blue_star,36,1264.1000000238419,circle,2025-06-23T15:30:09.804,3,True,black,assets/images/3blackcircle.svg,Stage.blockTrials,number,,,,,,,,,,,,,
7QYZfcjgZHcVB941oHiLGGPTk7U2,39,0.0,one_yellow_circle,37,1155.3999999761581,circle,2025-06-23T15:30:11.971,1,True,blue,assets/images/1bluecircle.svg,Stage.blockTrials,number,,,,,,,,,,,,,
7QYZfcjgZHcVB941oHiLGGPTk7U2,40,0.0,one_yellow_circle,37,923.1000000238419,circle,2025-06-23T15:30:13.908,1,False,blue,assets/images/1bluecircle.svg,Stage.blockTrials,colour,,,,,,,,,,,,,
7QYZfcjgZHcVB941oHiLGGPTk7U2,41,0.0,three_blue_star,38,4082.7999999523163,star,2025-06-23T15:30:18.996,2,True,blue,assets/images/2bluestar.svg,Stage.blockTrials,colour,,,,,,,,,,,,,
7QYZfcjgZHcVB941oHiLGGPTk7U2,42,0.0,two_black_rectangle,39,1478.6000000238419,rectangle,2025-06-23T15:30:21.477,1,True,black,assets/images/1blackrectangle.svg,Stage.blockTrials,colour,,,,,,,,,,,,,
7QYZfcjgZHcVB941oHiLGGPTk7U2,43,0.0,one_yellow_circle,40,2456.0,triangle,2025-06-23T15:30:24.941,3,True,yellow,assets/images/3yellowtriangle.svg,Stage.blockTrials,colour,,,,,,,,,,,,,
7QYZfcjgZHcVB941oHiLGGPTk7U2,44,0.0,two_black_rectangle,41,1017.8999999761581,circle,2025-06-23T15:30:26.973,2,True,black,assets/images/2blackcircle.svg,Stage.blockTrials,colour,,,,,,,,,,,,,
7QYZfcjgZHcVB941oHiLGGPTk7U2,45,0.0,three_blue_star,42,1810.0,rectangle,2025-06-23T15:30:29.798,2,True,blue,assets/images/2bluerectangle.svg,Stage.blockTrials,colour,,,,,,,,,,,,,
7QYZfcjgZHcVB941oHiLGGPTk7U2,46,0.0,one_yellow_circle,43,2550.3000000715256,star,2025-06-23T15:30:33.350,2,True,yellow,assets/images/2yellowstar.svg,Stage.blockTrials,colour,,,,,,,,,,,,,
7QYZfcjgZHcVB941oHiLGGPTk7U2,47,0.0,two_black_rectangle,44,2812.2000000476837,triangle,2025-06-23T15:30:37.167,4,True,black,assets/images/4blacktriangle.svg,Stage.blockTrials,colour,,,,,,,,,,,,,
7QYZfcjgZHcVB941oHiLGGPTk7U2,48,0.0,three_blue_star,45,1150.8000000715256,triangle,2025-06-23T15:30:39.329,2,True,blue,assets/images/2bluetriangle.svg,Stage.blockTrials,colour,,,,,,,,,,,,,
7QYZfcjgZHcVB941oHiLGGPTk7U2,49,0.0,one_yellow_circle,46,1140.7999999523163,star,2025-06-23T15:30:41.471,1,True,yellow,assets/images/1yellowstar.svg,Stage.blockTrials,colour,,,,,,,,,,,,,
7QYZfcjgZHcVB941oHiLGGPTk7U2,50,0.0,four_red_triangle,47,1247.6000000238419,circle,2025-06-23T15:30:43.729,2,True,red,assets/images/2redcircle.svg,Stage.blockTrials,colour,,,,,,,,,,,,,
7QYZfcjgZHcVB941oHiLGGPTk7U2,51,0.0,four_red_triangle,47,832.3999999761581,circle,2025-06-23T15:30:45.568,2,False,red,assets/images/2redcircle.svg,Stage.blockTrials,shape,,,,,,,,,,,,,
7QYZfcjgZHcVB941oHiLGGPTk7U2,52,0.0,one_yellow_circle,48,4209.299999952316,circle,2025-06-23T15:30:50.787,3,True,yellow,assets/images/3yellowcircle.svg,Stage.blockTrials,shape,,,,,,,,,,,,,
7QYZfcjgZHcVB941oHiLGGPTk7U2,53,0.0,four_red_triangle,49,1324.7000000476837,triangle,2025-06-23T15:30:53.121,2,True,black,assets/images/2blacktriangle.svg,Stage.blockTrials,shape,,,,,,,,,,,,,
7QYZfcjgZHcVB941oHiLGGPTk7U2,54,0.0,two_black_rectangle,50,1517.0,rectangle,2025-06-23T15:30:55.649,3,True,red,assets/images/3redrectangle.svg,Stage.blockTrials,shape,,,,,,,,,,,,,
7QYZfcjgZHcVB941oHiLGGPTk7U2,55,0.0,three_blue_star,51,1184.4000000953674,star,2025-06-23T15:30:57.841,3,True,blue,assets/images/3bluestar.svg,Stage.blockTrials,shape,,,,,,,,,,,,,
7QYZfcjgZHcVB941oHiLGGPTk7U2,56,0.0,one_yellow_circle,52,1227.3999999761581,circle,2025-06-23T15:31:00.081,1,True,black,assets/images/1blackcircle.svg,Stage.blockTrials,shape,,,,,,,,,,,,,
7QYZfcjgZHcVB941oHiLGGPTk7U2,57,0.0,two_black_rectangle,53,1660.6000000238419,rectangle,2025-06-23T15:31:02.746,3,True,blue,assets/images/3bluerectangle.svg,Stage.blockTrials,shape,,,,,,,,,,,,,
7QYZfcjgZHcVB941oHiLGGPTk7U2,58,0.0,three_blue_star,54,1345.3999999761581,star,2025-06-23T15:31:05.098,1,True,red,assets/images/1redstar.svg,Stage.blockTrials,shape,,,,,,,,,,,,,
7QYZfcjgZHcVB941oHiLGGPTk7U2,59,0.0,one_yellow_circle,55,1368.9000000953674,circle,2025-06-23T15:31:07.482,4,True,red,assets/images/4redcircle.svg,Stage.blockTrials,shape,,,,,,,,,,,,,
7QYZfcjgZHcVB941oHiLGGPTk7U2,60,0.0,four_red_triangle,56,2492.600000023842,triangle,2025-06-23T15:31:10.987,3,True,black,assets/images/3blacktriangle.svg,Stage.blockTrials,shape,,,,,,,,,,,,,
7QYZfcjgZHcVB941oHiLGGPTk7U2,61,0.0,two_black_rectangle,57,879.1999999284744,rectangle,2025-06-23T15:31:12.875,2,True,black,assets/images/2blackrectangle.svg,Stage.blockTrials,shape,,,,,,,,,,,,,
7QYZfcjgZHcVB941oHiLGGPTk7U2,62,0.0,two_black_rectangle,57,670.6000000238419,rectangle,2025-06-23T15:31:14.547,2,True,black,assets/images/2blackrectangle.svg,Stage.blockTrials,number,,,,,,,,,,,,,
7QYZfcjgZHcVB941oHiLGGPTk7U2,63,0.0,three_blue_star,58,1902.2000000476837,star,2025-06-23T15:31:17.454,1,False,blue,assets/images/1bluestar.svg,Stage.blockTrials,number,,,,,,,,,,,,,
7QYZfcjgZHcVB941oHiLGGPTk7U2,64,0.0,three_blue_star,59,5873.899999976158,star,2025-06-23T15:31:24.340,3,True,black,assets/images/3blackstar.svg,Stage.blockTrials,number,,,,,,,,,,,,,
7QYZfcjgZHcVB941oHiLGGPTk7U2,65,0.0,three_blue_star,60,2319.3000000715256,rectangle,2025-06-23T15:31:27.670,3,True,black,assets/images/3blackrectangle.svg,Stage.blockTrials,number,,,,,,,,,,,,,
7QYZfcjgZHcVB941oHiLGGPTk7U2,66,0.0,three_blue_star,61,1037.2999999523163,star,2025-06-23T15:31:29.717,3,True,yellow,assets/images/3yellowstar.svg,Stage.blockTrials,number,,,,,,,,,,,,,
7QYZfcjgZHcVB941oHiLGGPTk7U2,67,0.0,three_blue_star,62,1519.6000000238419,circle,2025-06-23T15:31:32.245,3,True,red,assets/images/3redcircle.svg,Stage.blockTrials,number,,,,,,,,,,,,,
7QYZfcjgZHcVB941oHiLGGPTk7U2,68,0.0,four_red_triangle,63,1218.0,rectangle,2025-06-23T15:31:34.470,4,True,black,assets/images/4blackrectangle.svg,Stage.blockTrials,number,,,,,,,,,,,,,
7QYZfcjgZHcVB941oHiLGGPTk7U2,69,1.0,four_red_triangle,0,823.6000000238419,star,2025-06-23T15:31:36.303,4,True,black,assets/images/4blackstar.svg,Stage.blockTrials,number,,,,,,,,,,,,,
7QYZfcjgZHcVB941oHiLGGPTk7U2,70,1.0,one_yellow_circle,1,1206.0,star,2025-06-23T15:31:38.511,1,True,black,assets/images/1blackstar.svg,Stage.blockTrials,number,,,,,,,,,,,,,
7QYZfcjgZHcVB941oHiLGGPTk7U2,71,1.0,three_blue_star,2,968.2000000476837,rectangle,2025-06-23T15:31:40.486,3,True,yellow,assets/images/3yellowrectangle.svg,Stage.blockTrials,number,,,,,,,,,,,,,
7QYZfcjgZHcVB941oHiLGGPTk7U2,72,1.0,two_black_rectangle,3,798.6999999284744,rectangle,2025-06-23T15:31:42.294,2,True,yellow,assets/images/2yellowrectangle.svg,Stage.blockTrials,number,,,,,,,,,,,,,
7QYZfcjgZHcVB941oHiLGGPTk7U2,73,1.0,three_blue_star,4,959.5,triangle,2025-06-23T15:31:44.263,3,True,red,assets/images/3redtriangle.svg,Stage.blockTrials,number,,,,,,,,,,,,,
GE4hogtdLdTFbNasENgtm6SO3hC3,0,,three_blue_star,0,4692.5999999940395,star,2025-09-01T21:14:41.903,3,False,yellow,assets/images/3yellowstar.svg,WcstStage.blockTrials,colour,GE4hogtdLdTFbNasENgtm6SO3hC3,1913303.599999994,wcst,0.0,colour,"{'trialIndexInBlock': 0, 'chosenCard': 'three_blue_star', 'cardShape': 'star', 'isPE': False, 'cardNumber': 3, 'cardColor': 'yellow', 'targetCardPath': 'assets/images/3yellowstar.svg', 'isPR': False, 'isNPE': True, 'stageName': 'WcstStage.blockTrials', 'ruleAtThatTime': 'colour'}",False,True,False,1917996.199999988,4692.5999999940395,False,0.0
GE4hogtdLdTFbNasENgtm6SO3hC3,1,,three_blue_star,1,3870.0999999940395,rectangle,2025-09-01T21:14:46.803,3,False,black,assets/images/3blackrectangle.svg,WcstStage.blockTrials,colour,GE4hogtdLdTFbNasENgtm6SO3hC3,1919025.599999994,wcst,0.0,colour,"{'trialIndexInBlock': 1, 'chosenCard': 'three_blue_star', 'cardShape': 'rectangle', 'isPE': False, 'cardNumber': 3, 'cardColor': 'black', 'targetCardPath': 'assets/images/3blackrectangle.svg', 'isPR': False, 'isNPE': True, 'stageName': 'WcstStage.blockTrials', 'ruleAtThatTime': 'colour'}",False,True,False,1922895.699999988,3870.0999999940395,False,1.0
GE4hogtdLdTFbNasENgtm6SO3hC3,2,,four_red_triangle,2,3984.5,star,2025-09-01T21:14:51.817,1,True,red,assets/images/1redstar.svg,WcstStage.blockTrials,colour,GE4hogtdLdTFbNasENgtm6SO3hC3,1923925.0,wcst,0.0,colour,"{'trialIndexInBlock': 2, 'chosenCard': 'four_red_triangle', 'cardShape': 'star', 'isPE': False, 'cardNumber': 1, 'cardColor': 'red', 'targetCardPath': 'assets/images/1redstar.svg', 'isPR': False, 'isNPE': False, 'stageName': 'WcstStage.blockTrials', 'ruleAtThatTime': 'colour'}",False,False,False,1927909.5,3984.5,False,2.0
GE4hogtdLdTFbNasENgtm6SO3hC3,3,,two_black_rectangle,3,1972.7999999821186,rectangle,2025-09-01T21:14:54.817,2,True,black,assets/images/2blackrectangle.svg,WcstStage.blockTrials,colour,GE4hogtdLdTFbNasENgtm6SO3hC3,1928937.599999994,wcst,0.0,colour,"{'trialIndexInBlock': 3, 'chosenCard': 'two_black_rectangle', 'cardShape': 'rectangle', 'isPE': False, 'cardNumber': 2, 'cardColor': 'black', 'targetCardPath': 'assets/images/2blackrectangle.svg', 'isPR': False, 'isNPE': False, 'stageName': 'WcstStage.blockTrials', 'ruleAtThatTime': 'colour'}",False,False,False,1930910.3999999762,1972.7999999821186,False,3.0
GE4hogtdLdTFbNasENgtm6SO3hC3,4,,one_yellow_circle,4,1658.199999988079,circle,2025-09-01T21:14:57.501,4,True,yellow,assets/images/4yellowcircle.svg,WcstStage.blockTrials,colour,GE4hogtdLdTFbNasENgtm6SO3hC3,1931935.5,wcst,0.0,colour,"{'trialIndexInBlock': 4, 'chosenCard': 'one_yellow_circle', 'cardShape': 'circle', 'isPE': False, 'cardNumber': 4, 'cardColor': 'yellow', 'targetCardPath': 'assets/images/4yellowcircle.svg', 'isPR': False, 'isNPE': False, 'stageName': 'WcstStage.blockTrials', 'ruleAtThatTime': 'colour'}",False,False,False,1933593.699999988,1658.199999988079,False,4.0
GE4hogtdLdTFbNasENgtm6SO3hC3,5,,three_blue_star,5,1715.199999988079,star,2025-09-01T21:15:00.262,2,True,blue,assets/images/2bluestar.svg,WcstStage.blockTrials,colour,GE4hogtdLdTFbNasENgtm6SO3hC3,1934640.0,wcst,0.0,colour,"{'trialIndexInBlock': 5, 'chosenCard': 'three_blue_star', 'cardShape': 'star', 'isPE': False, 'cardNumber': 2, 'cardColor': 'blue', 'targetCardPath': 'assets/images/2bluestar.svg', 'isPR': False, 'isNPE': False, 'stageName': 'WcstStage.blockTrials', 'ruleAtThatTime': 'colour'}",False,False,False,1936355.199999988,1715.199999988079,False,5.0
GE4hogtdLdTFbNasENgtm6SO3hC3,6,,one_yellow_circle,6,1266.0,rectangle,2025-09-01T21:15:02.550,1,True,yellow,assets/images/1yellowrectangle.svg,WcstStage.blockTrials,colour,GE4hogtdLdTFbNasENgtm6SO3hC3,1937376.7999999821,wcst,0.0,colour,"{'trialIndexInBlock': 6, 'chosenCard': 'one_yellow_circle', 'cardShape': 'rectangle', 'isPE': False, 'cardNumber': 1, 'cardColor': 'yellow', 'targetCardPath': 'assets/images/1yellowrectangle.svg', 'isPR': False, 'isNPE': False, 'stageName': 'WcstStage.blockTrials', 'ruleAtThatTime': 'colour'}",False,False,False,1938642.7999999821,1266.0,False,6.0
GE4hogtdLdTFbNasENgtm6SO3hC3,7,,three_blue_star,7,1727.5999999940395,triangle,2025-09-01T21:15:05.301,4,True,blue,assets/images/4bluetriangle.svg,WcstStage.blockTrials,colour,GE4hogtdLdTFbNasENgtm6SO3hC3,1939666.2999999821,wcst,0.0,colour,"{'trialIndexInBlock': 7, 'chosenCard': 'three_blue_star', 'cardShape': 'triangle', 'isPE': False, 'cardNumber': 4, 'cardColor': 'blue', 'targetCardPath': 'assets/images/4bluetriangle.svg', 'isPR': False, 'isNPE': False, 'stageName': 'WcstStage.blockTrials', 'ruleAtThatTime': 'colour'}",False,False,False,1941393.8999999762,1727.5999999940395,False,7.0
GE4hogtdLdTFbNasENgtm6SO3hC3,8,,one_yellow_circle,8,1819.800000011921,star,2025-09-01T21:15:08.154,4,True,yellow,assets/images/4yellowstar.svg,WcstStage.blockTrials,colour,GE4hogtdLdTFbNasENgtm6SO3hC3,1942427.199999988,wcst,0.0,colour,"{'trialIndexInBlock': 8, 'chosenCard': 'one_yellow_circle', 'cardShape': 'star', 'isPE': False, 'cardNumber': 4, 'cardColor': 'yellow', 'targetCardPath': 'assets/images/4yellowstar.svg', 'isPR': False, 'isNPE': False, 'stageName': 'WcstStage.blockTrials', 'ruleAtThatTime': 'colour'}",False,False,False,1944247.0,1819.800000011921,False,8.0
GE4hogtdLdTFbNasENgtm6SO3hC3,9,,four_red_triangle,9,1512.5,circle,2025-09-01T21:15:10.698,2,True,red,assets/images/2redcircle.svg,WcstStage.blockTrials,colour,GE4hogtdLdTFbNasENgtm6SO3hC3,1945278.3999999762,wcst,0.0,colour,"{'trialIndexInBlock': 9, 'chosenCard': 'four_red_triangle', 'cardShape': 'circle', 'isPE': False, 'cardNumber': 2, 'cardColor': 'red', 'targetCardPath': 'assets/images/2redcircle.svg', 'isPR': False, 'isNPE': False, 'stageName': 'WcstStage.blockTrials', 'ruleAtThatTime': 'colour'}",False,False,False,1946790.8999999762,1512.5,False,9.0
GE4hogtdLdTFbNasENgtm6SO3hC3,10,,two_black_rectangle,10,1824.5999999940395,circle,2025-09-01T21:15:13.546,2,True,black,assets/images/2blackcircle.svg,WcstStage.blockTrials,colour,GE4hogtdLdTFbNasENgtm6SO3hC3,1947814.699999988,wcst,0.0,colour,"{'trialIndexInBlock': 10, 'chosenCard': 'two_black_rectangle', 'cardShape': 'circle', 'isPE': False, 'cardNumber': 2, 'cardColor': 'black', 'targetCardPath': 'assets/images/2blackcircle.svg', 'isPR': False, 'isNPE': False, 'stageName': 'WcstStage.blockTrials', 'ruleAtThatTime': 'colour'}",False,False,False,1949639.2999999821,1824.5999999940395,False,10.0
GE4hogtdLdTFbNasENgtm6SO3hC3,11,,four_red_triangle,11,1885.300000011921,circle,2025-09-01T21:15:16.458,4,True,red,assets/images/4redcircle.svg,WcstStage.blockTrials,colour,GE4hogtdLdTFbNasENgtm6SO3hC3,1950665.8999999762,wcst,0.0,colour,"{'trialIndexInBlock': 11, 'chosenCard': 'four_red_triangle', 'cardShape': 'circle', 'isPE': False, 'cardNumber': 4, 'cardColor': 'red', 'targetCardPath': 'assets/images/4redcircle.svg', 'isPR': False, 'isNPE': False, 'stageName': 'WcstStage.blockTrials', 'ruleAtThatTime': 'colour'}",False,False,False,1952551.199999988,1885.300000011921,False,11.0
GE4hogtdLdTFbNasENgtm6SO3hC3,12,,three_blue_star,12,2081.2999999821186,circle,2025-09-01T21:15:19.568,3,False,blue,assets/images/3bluecircle.svg,WcstStage.blockTrials,shape,GE4hogtdLdTFbNasENgtm6SO3hC3,1953580.099999994,wcst,0.0,shape,"{'trialIndexInBlock': 12, 'chosenCard': 'three_blue_star', 'cardShape': 'circle', 'isPE': True, 'cardNumber': 3, 'cardColor': 'blue', 'targetCardPath': 'assets/images/3bluecircle.svg', 'isPR': True, 'isNPE': False, 'stageName': 'WcstStage.blockTrials', 'ruleAtThatTime': 'shape'}",False,False,True,1955661.3999999762,2081.2999999821186,True,12.0
GE4hogtdLdTFbNasENgtm6SO3hC3,13,,two_black_rectangle,13,1804.9000000059605,rectangle,2025-09-01T21:15:22.403,4,True,yellow,assets/images/4yellowrectangle.svg,WcstStage.blockTrials,shape,GE4hogtdLdTFbNasENgtm6SO3hC3,1956691.699999988,wcst,0.0,shape,"{'trialIndexInBlock': 13, 'chosenCard': 'two_black_rectangle', 'cardShape': 'rectangle', 'isPE': False, 'cardNumber': 4, 'cardColor': 'yellow', 'targetCardPath': 'assets/images/4yellowrectangle.svg', 'isPR': False, 'isNPE': False, 'stageName': 'WcstStage.blockTrials', 'ruleAtThatTime': 'shape'}",False,False,False,1958496.599999994,1804.9000000059605,False,13.0
GE4hogtdLdTFbNasENgtm6SO3hC3,14,,four_red_triangle,14,1819.0,triangle,2025-09-01T21:15:25.249,2,True,yellow,assets/images/2yellowtriangle.svg,WcstStage.blockTrials,shape,GE4hogtdLdTFbNasENgtm6SO3hC3,1959523.5,wcst,0.0,shape,"{'trialIndexInBlock': 14, 'chosenCard': 'four_red_triangle', 'cardShape': 'triangle', 'isPE': False, 'cardNumber': 2, 'cardColor': 'yellow', 'targetCardPath': 'assets/images/2yellowtriangle.svg', 'isPR': False, 'isNPE': False, 'stageName': 'WcstStage.blockTrials', 'ruleAtThatTime': 'shape'}",False,False,False,1961342.5,1819.0,False,14.0
GE4hogtdLdTFbNasENgtm6SO3hC3,15,,four_red_triangle,15,1697.0,triangle,2025-09-01T21:15:27.983,4,True,black,assets/images/4blacktriangle.svg,WcstStage.blockTrials,shape,GE4hogtdLdTFbNasENgtm6SO3hC3,1962378.599999994,wcst,0.0,shape,"{'trialIndexInBlock': 15, 'chosenCard': 'four_red_triangle', 'cardShape': 'triangle', 'isPE': False, 'cardNumber': 4, 'cardColor': 'black', 'targetCardPath': 'assets/images/4blacktriangle.svg', 'isPR': False, 'isNPE': False, 'stageName': 'WcstStage.blockTrials', 'ruleAtThatTime': 'shape'}",False,False,False,1964075.599999994,1697.0,False,15.0
GE4hogtdLdTFbNasENgtm6SO3hC3,16,,two_black_rectangle,16,1417.0999999940395,rectangle,2025-09-01T21:15:30.420,2,True,red,assets/images/2redrectangle.svg,WcstStage.blockTrials,shape,GE4hogtdLdTFbNasENgtm6SO3hC3,1965095.699999988,wcst,0.0,shape,"{'trialIndexInBlock': 16, 'chosenCard': 'two_black_rectangle', 'cardShape': 'rectangle', 'isPE': False, 'cardNumber': 2, 'cardColor': 'red', 'targetCardPath': 'assets/images/2redrectangle.svg', 'isPR': False, 'isNPE': False, 'stageName': 'WcstStage.blockTrials', 'ruleAtThatTime': 'shape'}",False,False,False,1966512.7999999821,1417.0999999940395,False,16.0
GE4hogtdLdTFbNasENgtm6SO3hC3,17,,three_blue_star,17,1448.5999999940395,star,2025-09-01T21:15:32.898,1,True,black,assets/images/1blackstar.svg,WcstStage.blockTrials,shape,GE4hogtdLdTFbNasENgtm6SO3hC3,1967542.599999994,wcst,0.0,shape,"{'trialIndexInBlock': 17, 'chosenCard': 'three_blue_star', 'cardShape': 'star', 'isPE': False, 'cardNumber': 1, 'cardColor': 'black', 'targetCardPath': 'assets/images/1blackstar.svg', 'isPR': False, 'isNPE': False, 'stageName': 'WcstStage.blockTrials', 'ruleAtThatTime': 'shape'}",False,False,False,1968991.199999988,1448.5999999940395,False,17.0
GE4hogtdLdTFbNasENgtm6SO3hC3,18,,four_red_triangle,18,2506.0999999940395,triangle,2025-09-01T21:15:36.437,2,True,black,assets/images/2blacktriangle.svg,WcstStage.blockTrials,shape,GE4hogtdLdTFbNasENgtm6SO3hC3,1970023.699999988,wcst,0.0,shape,"{'trialIndexInBlock': 18, 'chosenCard': 'four_red_triangle', 'cardShape': 'triangle', 'isPE': False, 'cardNumber': 2, 'cardColor': 'black', 'targetCardPath': 'assets/images/2blacktriangle.svg', 'isPR': False, 'isNPE': False, 'stageName': 'WcstStage.blockTrials', 'ruleAtThatTime': 'shape'}",False,False,False,1972529.7999999821,2506.0999999940395,False,18.0
GE4hogtdLdTFbNasENgtm6SO3hC3,19,,three_blue_star,19,1598.5999999940395,star,2025-09-01T21:15:39.064,4,True,black,assets/images/4blackstar.svg,WcstStage.blockTrials,shape,GE4hogtdLdTFbNasENgtm6SO3hC3,1973558.5,wcst,0.0,shape,"{'trialIndexInBlock': 19, 'chosenCard': 'three_blue_star', 'cardShape': 'star', 'isPE': False, 'cardNumber': 4, 'cardColor': 'black', 'targetCardPath': 'assets/images/4blackstar.svg', 'isPR': False, 'isNPE': False, 'stageName': 'WcstStage.blockTrials', 'ruleAtThatTime': 'shape'}",False,False,False,1975157.099999994,1598.5999999940395,False,19.0
GE4hogtdLdTFbNasENgtm6SO3hC3,20,,four_red_triangle,20,2488.699999988079,triangle,2025-09-01T21:15:42.582,2,True,blue,assets/images/2bluetriangle.svg,WcstStage.blockTrials,shape,GE4hogtdLdTFbNasENgtm6SO3hC3,1976186.099999994,wcst,0.0,shape,"{'trialIndexInBlock': 20, 'chosenCard': 'four_red_triangle', 'cardShape': 'triangle', 'isPE': False, 'cardNumber': 2, 'cardColor': 'blue', 'targetCardPath': 'assets/images/2bluetriangle.svg', 'isPR': False, 'isNPE': False, 'stageName': 'WcstStage.blockTrials', 'ruleAtThatTime': 'shape'}",False,False,False,1978674.7999999821,2488.699999988079,False,20.0
GE4hogtdLdTFbNasENgtm6SO3hC3,21,,two_black_rectangle,21,1260.2999999821186,rectangle,2025-09-01T21:15:44.870,2,True,yellow,assets/images/2yellowrectangle.svg,WcstStage.blockTrials,shape,GE4hogtdLdTFbNasENgtm6SO3hC3,1979702.599999994,wcst,0.0,shape,"{'trialIndexInBlock': 21, 'chosenCard': 'two_black_rectangle', 'cardShape': 'rectangle', 'isPE': False, 'cardNumber': 2, 'cardColor': 'yellow', 'targetCardPath': 'assets/images/2yellowrectangle.svg', 'isPR': False, 'isNPE': False, 'stageName': 'WcstStage.blockTrials', 'ruleAtThatTime': 'shape'}",False,False,False,1980962.8999999762,1260.2999999821186,False,21.0
GE4hogtdLdTFbNasENgtm6SO3hC3,22,,four_red_triangle,22,2663.399999976158,triangle,2025-09-01T21:15:48.564,1,True,blue,assets/images/1bluetriangle.svg,WcstStage.blockTrials,shape,GE4hogtdLdTFbNasENgtm6SO3hC3,1981993.5,wcst,0.0,shape,"{'trialIndexInBlock': 22, 'chosenCard': 'four_red_triangle', 'cardShape': 'triangle', 'isPE': False, 'cardNumber': 1, 'cardColor': 'blue', 'targetCardPath': 'assets/images/1bluetriangle.svg', 'isPR': False, 'isNPE': False, 'stageName': 'WcstStage.blockTrials', 'ruleAtThatTime': 'shape'}",False,False,False,1984656.8999999762,2663.399999976158,False,22.0
GE4hogtdLdTFbNasENgtm6SO3hC3,23,,three_blue_star,23,3344.699999988079,rectangle,2025-09-01T21:15:52.935,3,True,blue,assets/images/3bluerectangle.svg,WcstStage.blockTrials,number,GE4hogtdLdTFbNasENgtm6SO3hC3,1985683.699999988,wcst,0.0,number,"{'trialIndexInBlock': 23, 'chosenCard': 'three_blue_star', 'cardShape': 'rectangle', 'isPE': False, 'cardNumber': 3, 'cardColor': 'blue', 'targetCardPath': 'assets/images/3bluerectangle.svg', 'isPR': False, 'isNPE': False, 'stageName': 'WcstStage.blockTrials', 'ruleAtThatTime': 'number'}",False,False,False,1989028.3999999762,3344.699999988079,False,23.0
GE4hogtdLdTFbNasENgtm6SO3hC3,24,,three_blue_star,24,1922.9000000059605,triangle,2025-09-01T21:15:55.885,3,True,red,assets/images/3redtriangle.svg,WcstStage.blockTrials,number,GE4hogtdLdTFbNasENgtm6SO3hC3,1990054.7999999821,wcst,0.0,number,"{'trialIndexInBlock': 24, 'chosenCard': 'three_blue_star', 'cardShape': 'triangle', 'isPE': False, 'cardNumber': 3, 'cardColor': 'red', 'targetCardPath': 'assets/images/3redtriangle.svg', 'isPR': False, 'isNPE': False, 'stageName': 'WcstStage.blockTrials', 'ruleAtThatTime': 'number'}",False,False,False,1991977.699999988,1922.9000000059605,False,24.0
GE4hogtdLdTFbNasENgtm6SO3hC3,25,,one_yellow_circle,25,1335.9000000059605,star,2025-09-01T21:15:58.248,1,True,yellow,assets/images/1yellowstar.svg,WcstStage.blockTrials,number,GE4hogtdLdTFbNasENgtm6SO3hC3,1993005.3999999762,wcst,0.0,number,"{'trialIndexInBlock': 25, 'chosenCard': 'one_yellow_circle', 'cardShape': 'star', 'isPE': False, 'cardNumber': 1, 'cardColor': 'yellow', 'targetCardPath': 'assets/images/1yellowstar.svg', 'isPR': False, 'isNPE': False, 'stageName': 'WcstStage.blockTrials', 'ruleAtThatTime': 'number'}",False,False,False,1994341.2999999821,1335.9000000059605,False,25.0
GE4hogtdLdTFbNasENgtm6SO3hC3,26,,four_red_triangle,26,1697.5,rectangle,2025-09-01T21:16:00.990,4,True,red,assets/images/4redrectangle.svg,WcstStage.blockTrials,number,GE4hogtdLdTFbNasENgtm6SO3hC3,1995385.2999999821,wcst,0.0,number,"{'trialIndexInBlock': 26, 'chosenCard': 'four_red_triangle', 'cardShape': 'rectangle', 'isPE': False, 'cardNumber': 4, 'cardColor': 'red', 'targetCardPath': 'assets/images/4redrectangle.svg', 'isPR': False, 'isNPE': False, 'stageName': 'WcstStage.blockTrials', 'ruleAtThatTime': 'number'}",False,False,False,1997082.7999999821,1697.5,False,26.0
GE4hogtdLdTFbNasENgtm6SO3hC3,27,,three_blue_star,27,1367.699999988079,circle,2025-09-01T21:16:03.385,3,True,yellow,assets/images/3yellowcircle.svg,WcstStage.blockTrials,number,GE4hogtdLdTFbNasENgtm6SO3hC3,1998110.0,wcst,0.0,number,"{'trialIndexInBlock': 27, 'chosenCard': 'three_blue_star', 'cardShape': 'circle', 'isPE': False, 'cardNumber': 3, 'cardColor': 'yellow', 'targetCardPath': 'assets/images/3yellowcircle.svg', 'isPR': False, 'isNPE': False, 'stageName': 'WcstStage.blockTrials', 'ruleAtThatTime': 'number'}",False,False,False,1999477.699999988,1367.699999988079,False,27.0
GE4hogtdLdTFbNasENgtm6SO3hC3,28,,three_blue_star,28,782.5,star,2025-09-01T21:16:05.194,3,True,blue,assets/images/3bluestar.svg,WcstStage.blockTrials,number,GE4hogtdLdTFbNasENgtm6SO3hC3,2000504.599999994,wcst,0.0,number,"{'trialIndexInBlock': 28, 'chosenCard': 'three_blue_star', 'cardShape': 'star', 'isPE': False, 'cardNumber': 3, 'cardColor': 'blue', 'targetCardPath': 'assets/images/3bluestar.svg', 'isPR': True, 'isNPE': False, 'stageName': 'WcstStage.blockTrials', 'ruleAtThatTime': 'number'}",False,False,False,2001287.099999994,782.5,True,28.0
GE4hogtdLdTFbNasENgtm6SO3hC3,29,,four_red_triangle,29,1574.1000000238419,rectangle,2025-09-01T21:16:07.804,4,True,blue,assets/images/4bluerectangle.svg,WcstStage.blockTrials,number,GE4hogtdLdTFbNasENgtm6SO3hC3,2002322.8999999762,wcst,0.0,number,"{'trialIndexInBlock': 29, 'chosenCard': 'four_red_triangle', 'cardShape': 'rectangle', 'isPE': False, 'cardNumber': 4, 'cardColor': 'blue', 'targetCardPath': 'assets/images/4bluerectangle.svg', 'isPR': False, 'isNPE': False, 'stageName': 'WcstStage.blockTrials', 'ruleAtThatTime': 'number'}",False,False,False,2003897.0,1574.1000000238419,False,29.0
GE4hogtdLdTFbNasENgtm6SO3hC3,30,,three_blue_star,30,1333.4000000059605,triangle,2025-09-01T21:16:10.171,3,True,blue,assets/images/3bluetriangle.svg,WcstStage.blockTrials,number,GE4hogtdLdTFbNasENgtm6SO3hC3,2004930.599999994,wcst,0.0,number,"{'trialIndexInBlock': 30, 'chosenCard': 'three_blue_star', 'cardShape': 'triangle', 'isPE': False, 'cardNumber': 3, 'cardColor': 'blue', 'targetCardPath': 'assets/images/3bluetriangle.svg', 'isPR': False, 'isNPE': False, 'stageName': 'WcstStage.blockTrials', 'ruleAtThatTime': 'number'}",False,False,False,2006264.0,1333.4000000059605,False,30.0
GE4hogtdLdTFbNasENgtm6SO3hC3,31,,two_black_rectangle,31,1330.0,star,2025-09-01T21:16:12.534,2,True,red,assets/images/2redstar.svg,WcstStage.blockTrials,number,GE4hogtdLdTFbNasENgtm6SO3hC3,2007297.2999999821,wcst,0.0,number,"{'trialIndexInBlock': 31, 'chosenCard': 'two_black_rectangle', 'cardShape': 'star', 'isPE': False, 'cardNumber': 2, 'cardColor': 'red', 'targetCardPath': 'assets/images/2redstar.svg', 'isPR': False, 'isNPE': False, 'stageName': 'WcstStage.blockTrials', 'ruleAtThatTime': 'number'}",False,False,False,2008627.2999999821,1330.0,False,31.0
GE4hogtdLdTFbNasENgtm6SO3hC3,32,,one_yellow_circle,32,1289.0,star,2025-09-01T21:16:14.851,1,True,blue,assets/images/1bluestar.svg,WcstStage.blockTrials,number,GE4hogtdLdTFbNasENgtm6SO3hC3,2009655.0,wcst,0.0,number,"{'trialIndexInBlock': 32, 'chosenCard': 'one_yellow_circle', 'cardShape': 'star', 'isPE': False, 'cardNumber': 1, 'cardColor': 'blue', 'targetCardPath': 'assets/images/1bluestar.svg', 'isPR': False, 'isNPE': False, 'stageName': 'WcstStage.blockTrials', 'ruleAtThatTime': 'number'}",False,False,False,2010944.0,1289.0,False,32.0
GE4hogtdLdTFbNasENgtm6SO3hC3,33,,one_yellow_circle,33,2267.5,circle,2025-09-01T21:16:18.146,1,False,black,assets/images/1blackcircle.svg,WcstStage.blockTrials,colour,GE4hogtdLdTFbNasENgtm6SO3hC3,2011971.5,wcst,0.0,colour,"{'trialIndexInBlock': 33, 'chosenCard': 'one_yellow_circle', 'cardShape': 'circle', 'isPE': True, 'cardNumber': 1, 'cardColor': 'black', 'targetCardPath': 'assets/images/1blackcircle.svg', 'isPR': True, 'isNPE': False, 'stageName': 'WcstStage.blockTrials', 'ruleAtThatTime': 'colour'}",False,False,True,2014239.0,2267.5,True,33.0
GE4hogtdLdTFbNasENgtm6SO3hC3,34,,one_yellow_circle,34,1458.5999999940395,circle,2025-09-01T21:16:20.633,2,False,blue,assets/images/2bluecircle.svg,WcstStage.blockTrials,colour,GE4hogtdLdTFbNasENgtm6SO3hC3,2015267.599999994,wcst,0.0,colour,"{'trialIndexInBlock': 34, 'chosenCard': 'one_yellow_circle', 'cardShape': 'circle', 'isPE': False, 'cardNumber': 2, 'cardColor': 'blue', 'targetCardPath': 'assets/images/2bluecircle.svg', 'isPR': False, 'isNPE': True, 'stageName': 'WcstStage.blockTrials', 'ruleAtThatTime': 'colour'}",False,True,False,2016726.199999988,1458.5999999940395,False,34.0
GE4hogtdLdTFbNasENgtm6SO3hC3,35,,three_blue_star,35,2075.800000011921,rectangle,2025-09-01T21:16:23.734,3,False,yellow,assets/images/3yellowrectangle.svg,WcstStage.blockTrials,colour,GE4hogtdLdTFbNasENgtm6SO3hC3,2017751.2999999821,wcst,0.0,colour,"{'trialIndexInBlock': 35, 'chosenCard': 'three_blue_star', 'cardShape': 'rectangle', 'isPE': True, 'cardNumber': 3, 'cardColor': 'yellow', 'targetCardPath': 'assets/images/3yellowrectangle.svg', 'isPR': True, 'isNPE': False, 'stageName': 'WcstStage.blockTrials', 'ruleAtThatTime': 'colour'}",False,False,True,2019827.099999994,2075.800000011921,True,35.0
GE4hogtdLdTFbNasENgtm6SO3hC3,36,,two_black_rectangle,36,2174.300000011921,circle,2025-09-01T21:16:26.932,3,True,black,assets/images/3blackcircle.svg,WcstStage.blockTrials,colour,GE4hogtdLdTFbNasENgtm6SO3hC3,2020850.2999999821,wcst,0.0,colour,"{'trialIndexInBlock': 36, 'chosenCard': 'two_black_rectangle', 'cardShape': 'circle', 'isPE': False, 'cardNumber': 3, 'cardColor': 'black', 'targetCardPath': 'assets/images/3blackcircle.svg', 'isPR': False, 'isNPE': False, 'stageName': 'WcstStage.blockTrials', 'ruleAtThatTime': 'colour'}",False,False,False,2023024.599999994,2174.300000011921,False,36.0
GE4hogtdLdTFbNasENgtm6SO3hC3,37,,four_red_triangle,37,1865.5,circle,2025-09-01T21:16:29.833,1,True,red,assets/images/1redcircle.svg,WcstStage.blockTrials,colour,GE4hogtdLdTFbNasENgtm6SO3hC3,2024060.3999999762,wcst,0.0,colour,"{'trialIndexInBlock': 37, 'chosenCard': 'four_red_triangle', 'cardShape': 'circle', 'isPE': False, 'cardNumber': 1, 'cardColor': 'red', 'targetCardPath': 'assets/images/1redcircle.svg', 'isPR': False, 'isNPE': False, 'stageName': 'WcstStage.blockTrials', 'ruleAtThatTime': 'colour'}",False,False,False,2025925.8999999762,1865.5,False,37.0
GE4hogtdLdTFbNasENgtm6SO3hC3,38,,two_black_rectangle,38,1657.0999999940395,rectangle,2025-09-01T21:16:32.524,1,True,black,assets/images/1blackrectangle.svg,WcstStage.blockTrials,colour,GE4hogtdLdTFbNasENgtm6SO3hC3,2026960.2999999821,wcst,0.0,colour,"{'trialIndexInBlock': 38, 'chosenCard': 'two_black_rectangle', 'cardShape': 'rectangle', 'isPE': False, 'cardNumber': 1, 'cardColor': 'black', 'targetCardPath': 'assets/images/1blackrectangle.svg', 'isPR': False, 'isNPE': False, 'stageName': 'WcstStage.blockTrials', 'ruleAtThatTime': 'colour'}",False,False,False,2028617.3999999762,1657.0999999940395,False,38.0
GE4hogtdLdTFbNasENgtm6SO3hC3,39,,two_black_rectangle,39,2053.5,star,2025-09-01T21:16:35.607,3,True,black,assets/images/3blackstar.svg,WcstStage.blockTrials,colour,GE4hogtdLdTFbNasENgtm6SO3hC3,2029646.7999999821,wcst,0.0,colour,"{'trialIndexInBlock': 39, 'chosenCard': 'two_black_rectangle', 'cardShape': 'star', 'isPE': False, 'cardNumber': 3, 'cardColor': 'black', 'targetCardPath': 'assets/images/3blackstar.svg', 'isPR': False, 'isNPE': False, 'stageName': 'WcstStage.blockTrials', 'ruleAtThatTime': 'colour'}",False,False,False,2031700.2999999821,2053.5,False,39.0
GE4hogtdLdTFbNasENgtm6SO3hC3,40,,four_red_triangle,40,2119.300000011921,triangle,2025-09-01T21:16:38.758,2,True,red,assets/images/2redtriangle.svg,WcstStage.blockTrials,colour,GE4hogtdLdTFbNasENgtm6SO3hC3,2032731.699999988,wcst,0.0,colour,"{'trialIndexInBlock': 40, 'chosenCard': 'four_red_triangle', 'cardShape': 'triangle', 'isPE': False, 'cardNumber': 2, 'cardColor': 'red', 'targetCardPath': 'assets/images/2redtriangle.svg', 'isPR': False, 'isNPE': False, 'stageName': 'WcstStage.blockTrials', 'ruleAtThatTime': 'colour'}",False,False,False,2034851.0,2119.300000011921,False,40.0
GE4hogtdLdTFbNasENgtm6SO3hC3,41,,four_red_triangle,41,1904.0,star,2025-09-01T21:16:41.689,3,True,red,assets/images/3redstar.svg,WcstStage.blockTrials,colour,GE4hogtdLdTFbNasENgtm6SO3hC3,2035877.7999999821,wcst,0.0,colour,"{'trialIndexInBlock': 41, 'chosenCard': 'four_red_triangle', 'cardShape': 'star', 'isPE': False, 'cardNumber': 3, 'cardColor': 'red', 'targetCardPath': 'assets/images/3redstar.svg', 'isPR': False, 'isNPE': False, 'stageName': 'WcstStage.blockTrials', 'ruleAtThatTime': 'colour'}",False,False,False,2037781.7999999821,1904.0,False,41.0
GE4hogtdLdTFbNasENgtm6SO3hC3,42,,one_yellow_circle,42,1995.6000000238419,star,2025-09-01T21:16:44.710,2,True,yellow,assets/images/2yellowstar.svg,WcstStage.blockTrials,colour,GE4hogtdLdTFbNasENgtm6SO3hC3,2038807.3999999762,wcst,0.0,colour,"{'trialIndexInBlock': 42, 'chosenCard': 'one_yellow_circle', 'cardShape': 'star', 'isPE': False, 'cardNumber': 2, 'cardColor': 'yellow', 'targetCardPath': 'assets/images/2yellowstar.svg', 'isPR': False, 'isNPE': False, 'stageName': 'WcstStage.blockTrials', 'ruleAtThatTime': 'colour'}",False,False,False,2040803.0,1995.6000000238419,False,42.0
GE4hogtdLdTFbNasENgtm6SO3hC3,43,,three_blue_star,43,1765.699999988079,star,2025-09-01T21:16:47.500,4,True,blue,assets/images/4bluestar.svg,WcstStage.blockTrials,colour,GE4hogtdLdTFbNasENgtm6SO3hC3,2041827.0,wcst,0.0,colour,"{'trialIndexInBlock': 43, 'chosenCard': 'three_blue_star', 'cardShape': 'star', 'isPE': False, 'cardNumber': 4, 'cardColor': 'blue', 'targetCardPath': 'assets/images/4bluestar.svg', 'isPR': False, 'isNPE': False, 'stageName': 'WcstStage.blockTrials', 'ruleAtThatTime': 'colour'}",False,False,False,2043592.699999988,1765.699999988079,False,43.0
GE4hogtdLdTFbNasENgtm6SO3hC3,44,,one_yellow_circle,44,1579.199999988079,triangle,2025-09-01T21:16:50.117,4,True,yellow,assets/images/4yellowtriangle.svg,WcstStage.blockTrials,colour,GE4hogtdLdTFbNasENgtm6SO3hC3,2044631.099999994,wcst,0.0,colour,"{'trialIndexInBlock': 44, 'chosenCard': 'one_yellow_circle', 'cardShape': 'triangle', 'isPE': False, 'cardNumber': 4, 'cardColor': 'yellow', 'targetCardPath': 'assets/images/4yellowtriangle.svg', 'isPR': False, 'isNPE': False, 'stageName': 'WcstStage.blockTrials', 'ruleAtThatTime': 'colour'}",False,False,False,2046210.2999999821,1579.199999988079,False,44.0
GE4hogtdLdTFbNasENgtm6SO3hC3,45,,one_yellow_circle,45,1498.2000000178814,triangle,2025-09-01T21:16:52.642,1,True,yellow,assets/images/1yellowtriangle.svg,WcstStage.blockTrials,colour,GE4hogtdLdTFbNasENgtm6SO3hC3,2047236.7999999821,wcst,0.0,colour,"{'trialIndexInBlock': 45, 'chosenCard': 'one_yellow_circle', 'cardShape': 'triangle', 'isPE': False, 'cardNumber': 1, 'cardColor': 'yellow', 'targetCardPath': 'assets/images/1yellowtriangle.svg', 'isPR': True, 'isNPE': False, 'stageName': 'WcstStage.blockTrials', 'ruleAtThatTime': 'colour'}",False,False,False,2048735.0,1498.2000000178814,True,45.0
GE4hogtdLdTFbNasENgtm6SO3hC3,46,,three_blue_star,46,2033.300000011921,circle,2025-09-01T21:16:55.702,3,False,red,assets/images/3redcircle.svg,WcstStage.blockTrials,shape,GE4hogtdLdTFbNasENgtm6SO3hC3,2049762.199999988,wcst,0.0,shape,"{'trialIndexInBlock': 46, 'chosenCard': 'three_blue_star', 'cardShape': 'circle', 'isPE': False, 'cardNumber': 3, 'cardColor': 'red', 'targetCardPath': 'assets/images/3redcircle.svg', 'isPR': False, 'isNPE': True, 'stageName': 'WcstStage.blockTrials', 'ruleAtThatTime': 'shape'}",False,True,False,2051795.5,2033.300000011921,False,46.0
GE4hogtdLdTFbNasENgtm6SO3hC3,47,,two_black_rectangle,47,1587.5,rectangle,2025-09-01T21:16:58.318,3,True,red,assets/images/3redrectangle.svg,WcstStage.blockTrials,shape,GE4hogtdLdTFbNasENgtm6SO3hC3,2052823.2999999821,wcst,0.0,shape,"{'trialIndexInBlock': 47, 'chosenCard': 'two_black_rectangle', 'cardShape': 'rectangle', 'isPE': False, 'cardNumber': 3, 'cardColor': 'red', 'targetCardPath': 'assets/images/3redrectangle.svg', 'isPR': False, 'isNPE': False, 'stageName': 'WcstStage.blockTrials', 'ruleAtThatTime': 'shape'}",False,False,False,2054410.7999999821,1587.5,False,47.0
GE4hogtdLdTFbNasENgtm6SO3hC3,48,,one_yellow_circle,48,1145.5999999940395,circle,2025-09-01T21:17:00.487,1,True,yellow,assets/images/1yellowcircle.svg,WcstStage.blockTrials,shape,GE4hogtdLdTFbNasENgtm6SO3hC3,2055435.0,wcst,0.0,shape,"{'trialIndexInBlock': 48, 'chosenCard': 'one_yellow_circle', 'cardShape': 'circle', 'isPE': False, 'cardNumber': 1, 'cardColor': 'yellow', 'targetCardPath': 'assets/images/1yellowcircle.svg', 'isPR': True, 'isNPE': False, 'stageName': 'WcstStage.blockTrials', 'ruleAtThatTime': 'shape'}",False,False,False,2056580.599999994,1145.5999999940395,True,48.0
GE4hogtdLdTFbNasENgtm6SO3hC3,49,,four_red_triangle,49,1836.4000000059605,triangle,2025-09-01T21:17:03.354,4,True,red,assets/images/4redtriangle.svg,WcstStage.blockTrials,shape,GE4hogtdLdTFbNasENgtm6SO3hC3,2057610.199999988,wcst,0.0,shape,"{'trialIndexInBlock': 49, 'chosenCard': 'four_red_triangle', 'cardShape': 'triangle', 'isPE': False, 'cardNumber': 4, 'cardColor': 'red', 'targetCardPath': 'assets/images/4redtriangle.svg', 'isPR': True, 'isNPE': False, 'stageName': 'WcstStage.blockTrials', 'ruleAtThatTime': 'shape'}",False,False,False,2059446.599999994,1836.4000000059605,True,49.0
GE4hogtdLdTFbNasENgtm6SO3hC3,50,,four_red_triangle,50,1911.5,triangle,2025-09-01T21:17:06.291,1,True,black,assets/images/1blacktriangle.svg,WcstStage.blockTrials,shape,GE4hogtdLdTFbNasENgtm6SO3hC3,2060473.0,wcst,0.0,shape,"{'trialIndexInBlock': 50, 'chosenCard': 'four_red_triangle', 'cardShape': 'triangle', 'isPE': False, 'cardNumber': 1, 'cardColor': 'black', 'targetCardPath': 'assets/images/1blacktriangle.svg', 'isPR': False, 'isNPE': False, 'stageName': 'WcstStage.blockTrials', 'ruleAtThatTime': 'shape'}",False,False,False,2062384.5,1911.5,False,50.0
GE4hogtdLdTFbNasENgtm6SO3hC3,51,,two_black_rectangle,51,1810.699999988079,rectangle,2025-09-01T21:17:09.132,1,True,blue,assets/images/1bluerectangle.svg,WcstStage.blockTrials,shape,GE4hogtdLdTFbNasENgtm6SO3hC3,2063414.0,wcst,0.0,shape,"{'trialIndexInBlock': 51, 'chosenCard': 'two_black_rectangle', 'cardShape': 'rectangle', 'isPE': False, 'cardNumber': 1, 'cardColor': 'blue', 'targetCardPath': 'assets/images/1bluerectangle.svg', 'isPR': False, 'isNPE': False, 'stageName': 'WcstStage.blockTrials', 'ruleAtThatTime': 'shape'}",False,False,False,2065224.699999988,1810.699999988079,False,51.0
GE4hogtdLdTFbNasENgtm6SO3hC3,52,,two_black_rectangle,52,1024.7000000178814,rectangle,2025-09-01T21:17:11.185,1,True,red,assets/images/1redrectangle.svg,WcstStage.blockTrials,shape,GE4hogtdLdTFbNasENgtm6SO3hC3,2066253.8999999762,wcst,0.0,shape,"{'trialIndexInBlock': 52, 'chosenCard': 'two_black_rectangle', 'cardShape': 'rectangle', 'isPE': False, 'cardNumber': 1, 'cardColor': 'red', 'targetCardPath': 'assets/images/1redrectangle.svg', 'isPR': False, 'isNPE': False, 'stageName': 'WcstStage.blockTrials', 'ruleAtThatTime': 'shape'}",False,False,False,2067278.599999994,1024.7000000178814,False,52.0
GE4hogtdLdTFbNasENgtm6SO3hC3,53,,four_red_triangle,53,1485.6000000238419,triangle,2025-09-01T21:17:13.696,1,True,red,assets/images/1redtriangle.svg,WcstStage.blockTrials,shape,GE4hogtdLdTFbNasENgtm6SO3hC3,2068303.3999999762,wcst,0.0,shape,"{'trialIndexInBlock': 53, 'chosenCard': 'four_red_triangle', 'cardShape': 'triangle', 'isPE': False, 'cardNumber': 1, 'cardColor': 'red', 'targetCardPath': 'assets/images/1redtriangle.svg', 'isPR': True, 'isNPE': False, 'stageName': 'WcstStage.blockTrials', 'ruleAtThatTime': 'shape'}",False,False,False,2069789.0,1485.6000000238419,True,53.0
GE4hogtdLdTFbNasENgtm6SO3hC3,54,,one_yellow_circle,54,1460.199999988079,circle,2025-09-01T21:17:16.185,2,True,yellow,assets/images/2yellowcircle.svg,WcstStage.blockTrials,shape,GE4hogtdLdTFbNasENgtm6SO3hC3,2070817.599999994,wcst,0.0,shape,"{'trialIndexInBlock': 54, 'chosenCard': 'one_yellow_circle', 'cardShape': 'circle', 'isPE': False, 'cardNumber': 2, 'cardColor': 'yellow', 'targetCardPath': 'assets/images/2yellowcircle.svg', 'isPR': True, 'isNPE': False, 'stageName': 'WcstStage.blockTrials', 'ruleAtThatTime': 'shape'}",False,False,False,2072277.7999999821,1460.199999988079,True,54.0
GE4hogtdLdTFbNasENgtm6SO3hC3,55,,one_yellow_circle,55,1456.199999988079,circle,2025-09-01T21:17:18.663,1,True,blue,assets/images/1bluecircle.svg,WcstStage.blockTrials,shape,GE4hogtdLdTFbNasENgtm6SO3hC3,2073300.199999988,wcst,0.0,shape,"{'trialIndexInBlock': 55, 'chosenCard': 'one_yellow_circle', 'cardShape': 'circle', 'isPE': False, 'cardNumber': 1, 'cardColor': 'blue', 'targetCardPath': 'assets/images/1bluecircle.svg', 'isPR': False, 'isNPE': False, 'stageName': 'WcstStage.blockTrials', 'ruleAtThatTime': 'shape'}",False,False,False,2074756.3999999762,1456.199999988079,False,55.0
GE4hogtdLdTFbNasENgtm6SO3hC3,56,,one_yellow_circle,56,913.5,circle,2025-09-01T21:17:20.609,4,True,blue,assets/images/4bluecircle.svg,WcstStage.blockTrials,shape,GE4hogtdLdTFbNasENgtm6SO3hC3,2075788.3999999762,wcst,0.0,shape,"{'trialIndexInBlock': 56, 'chosenCard': 'one_yellow_circle', 'cardShape': 'circle', 'isPE': False, 'cardNumber': 4, 'cardColor': 'blue', 'targetCardPath': 'assets/images/4bluecircle.svg', 'isPR': False, 'isNPE': False, 'stageName': 'WcstStage.blockTrials', 'ruleAtThatTime': 'shape'}",False,False,False,2076701.8999999762,913.5,False,56.0
GE4hogtdLdTFbNasENgtm6SO3hC3,57,,two_black_rectangle,57,2882.4000000059605,star,2025-09-01T21:17:24.521,2,True,black,assets/images/2blackstar.svg,WcstStage.blockTrials,number,GE4hogtdLdTFbNasENgtm6SO3hC3,2077731.8999999762,wcst,0.0,number,"{'trialIndexInBlock': 57, 'chosenCard': 'two_black_rectangle', 'cardShape': 'star', 'isPE': False, 'cardNumber': 2, 'cardColor': 'black', 'targetCardPath': 'assets/images/2blackstar.svg', 'isPR': False, 'isNPE': False, 'stageName': 'WcstStage.blockTrials', 'ruleAtThatTime': 'number'}",False,False,False,2080614.2999999821,2882.4000000059605,False,57.0
GE4hogtdLdTFbNasENgtm6SO3hC3,58,,four_red_triangle,58,1633.2999999821186,circle,2025-09-01T21:17:27.185,4,True,black,assets/images/4blackcircle.svg,WcstStage.blockTrials,number,GE4hogtdLdTFbNasENgtm6SO3hC3,2081645.0,wcst,0.0,number,"{'trialIndexInBlock': 58, 'chosenCard': 'four_red_triangle', 'cardShape': 'circle', 'isPE': False, 'cardNumber': 4, 'cardColor': 'black', 'targetCardPath': 'assets/images/4blackcircle.svg', 'isPR': False, 'isNPE': False, 'stageName': 'WcstStage.blockTrials', 'ruleAtThatTime': 'number'}",False,False,False,2083278.2999999821,1633.2999999821186,False,58.0
GE4hogtdLdTFbNasENgtm6SO3hC3,59,,three_blue_star,59,1244.7000000178814,triangle,2025-09-01T21:17:29.450,3,True,black,assets/images/3blacktriangle.svg,WcstStage.blockTrials,number,GE4hogtdLdTFbNasENgtm6SO3hC3,2084298.8999999762,wcst,0.0,number,"{'trialIndexInBlock': 59, 'chosenCard': 'three_blue_star', 'cardShape': 'triangle', 'isPE': False, 'cardNumber': 3, 'cardColor': 'black', 'targetCardPath': 'assets/images/3blacktriangle.svg', 'isPR': False, 'isNPE': False, 'stageName': 'WcstStage.blockTrials', 'ruleAtThatTime': 'number'}",False,False,False,2085543.599999994,1244.7000000178814,False,59.0
GE4hogtdLdTFbNasENgtm6SO3hC3,60,,three_blue_star,60,927.4000000059605,triangle,2025-09-01T21:17:31.401,3,True,yellow,assets/images/3yellowtriangle.svg,WcstStage.blockTrials,number,GE4hogtdLdTFbNasENgtm6SO3hC3,2086566.7999999821,wcst,0.0,number,"{'trialIndexInBlock': 60, 'chosenCard': 'three_blue_star', 'cardShape': 'triangle', 'isPE': False, 'cardNumber': 3, 'cardColor': 'yellow', 'targetCardPath': 'assets/images/3yellowtriangle.svg', 'isPR': False, 'isNPE': False, 'stageName': 'WcstStage.blockTrials', 'ruleAtThatTime': 'number'}",False,False,False,2087494.199999988,927.4000000059605,False,60.0
GE4hogtdLdTFbNasENgtm6SO3hC3,61,,two_black_rectangle,61,1582.199999988079,rectangle,2025-09-01T21:17:34.008,2,True,blue,assets/images/2bluerectangle.svg,WcstStage.blockTrials,number,GE4hogtdLdTFbNasENgtm6SO3hC3,2088518.5,wcst,0.0,number,"{'trialIndexInBlock': 61, 'chosenCard': 'two_black_rectangle', 'cardShape': 'rectangle', 'isPE': False, 'cardNumber': 2, 'cardColor': 'blue', 'targetCardPath': 'assets/images/2bluerectangle.svg', 'isPR': True, 'isNPE': False, 'stageName': 'WcstStage.blockTrials', 'ruleAtThatTime': 'number'}",False,False,False,2090100.699999988,1582.199999988079,True,61.0
GE4hogtdLdTFbNasENgtm6SO3hC3,62,,four_red_triangle,62,1873.5999999940395,rectangle,2025-09-01T21:17:36.901,4,True,black,assets/images/4blackrectangle.svg,WcstStage.blockTrials,number,GE4hogtdLdTFbNasENgtm6SO3hC3,2091120.699999988,wcst,0.0,number,"{'trialIndexInBlock': 62, 'chosenCard': 'four_red_triangle', 'cardShape': 'rectangle', 'isPE': False, 'cardNumber': 4, 'cardColor': 'black', 'targetCardPath': 'assets/images/4blackrectangle.svg', 'isPR': False, 'isNPE': False, 'stageName': 'WcstStage.blockTrials', 'ruleAtThatTime': 'number'}",False,False,False,2092994.2999999821,1873.5999999940395,False,62.0
GE4hogtdLdTFbNasENgtm6SO3hC3,63,,four_red_triangle,63,1276.0999999940395,star,2025-09-01T21:17:39.206,4,True,red,assets/images/4redstar.svg,WcstStage.blockTrials,number,GE4hogtdLdTFbNasENgtm6SO3hC3,2094022.699999988,wcst,0.0,number,"{'trialIndexInBlock': 63, 'chosenCard': 'four_red_triangle', 'cardShape': 'star', 'isPE': False, 'cardNumber': 4, 'cardColor': 'red', 'targetCardPath': 'assets/images/4redstar.svg', 'isPR': False, 'isNPE': False, 'stageName': 'WcstStage.blockTrials', 'ruleAtThatTime': 'number'}",False,False,False,2095298.7999999821,1276.0999999940395,False,63.0
GE4hogtdLdTFbNasENgtm6SO3hC3,64,,three_blue_star,0,1405.5999999940395,star,2025-09-01T21:17:41.638,3,True,yellow,assets/images/3yellowstar.svg,WcstStage.blockTrials,number,GE4hogtdLdTFbNasENgtm6SO3hC3,2096325.199999988,wcst,1.0,number,"{'trialIndexInBlock': 0, 'chosenCard': 'three_blue_star', 'cardShape': 'star', 'isPE': False, 'cardNumber': 3, 'cardColor': 'yellow', 'targetCardPath': 'assets/images/3yellowstar.svg', 'isPR': True, 'isNPE': False, 'stageName': 'WcstStage.blockTrials', 'ruleAtThatTime': 'number'}",False,False,False,2097730.799999982,1405.5999999940395,True,64.0
GE4hogtdLdTFbNasENgtm6SO3hC3,65,,three_blue_star,1,1139.9000000059605,rectangle,2025-09-01T21:17:43.800,3,True,black,assets/images/3blackrectangle.svg,WcstStage.blockTrials,number,GE4hogtdLdTFbNasENgtm6SO3hC3,2098753.299999982,wcst,1.0,number,"{'trialIndexInBlock': 1, 'chosenCard': 'three_blue_star', 'cardShape': 'rectangle', 'isPE': False, 'cardNumber': 3, 'cardColor': 'black', 'targetCardPath': 'assets/images/3blackrectangle.svg', 'isPR': False, 'isNPE': False, 'stageName': 'WcstStage.blockTrials', 'ruleAtThatTime': 'number'}",False,False,False,2099893.199999988,1139.9000000059605,False,65.0
GE4hogtdLdTFbNasENgtm6SO3hC3,66,,one_yellow_circle,2,1164.1000000238419,star,2025-09-01T21:17:45.992,1,True,red,assets/images/1redstar.svg,WcstStage.blockTrials,number,GE4hogtdLdTFbNasENgtm6SO3hC3,2100920.399999976,wcst,1.0,number,"{'trialIndexInBlock': 2, 'chosenCard': 'one_yellow_circle', 'cardShape': 'star', 'isPE': False, 'cardNumber': 1, 'cardColor': 'red', 'targetCardPath': 'assets/images/1redstar.svg', 'isPR': False, 'isNPE': False, 'stageName': 'WcstStage.blockTrials', 'ruleAtThatTime': 'number'}",False,False,False,2102084.5,1164.1000000238419,False,66.0
Qv0jhW3sqicqQvd7LfReAsI7nD73,0,,one_yellow_circle,0,5065.699999988079,circle,2025-09-02T15:17:01.652,1,False,red,assets/images/1redcircle.svg,WcstStage.blockTrials,colour,Qv0jhW3sqicqQvd7LfReAsI7nD73,942188.2000000179,wcst,0.0,colour,"{'trialIndexInBlock': 0, 'chosenCard': 'one_yellow_circle', 'cardShape': 'circle', 'isPE': False, 'cardNumber': 1, 'cardColor': 'red', 'targetCardPath': 'assets/images/1redcircle.svg', 'isPR': False, 'isNPE': True, 'stageName': 'WcstStage.blockTrials', 'ruleAtThatTime': 'colour'}",False,True,False,947253.900000006,5065.699999988079,False,0.0
Qv0jhW3sqicqQvd7LfReAsI7nD73,1,,three_blue_star,1,3263.600000023842,rectangle,2025-09-02T15:17:05.932,3,False,red,assets/images/3redrectangle.svg,WcstStage.blockTrials,colour,Qv0jhW3sqicqQvd7LfReAsI7nD73,948270.099999994,wcst,0.0,colour,"{'trialIndexInBlock': 1, 'chosenCard': 'three_blue_star', 'cardShape': 'rectangle', 'isPE': False, 'cardNumber': 3, 'cardColor': 'red', 'targetCardPath': 'assets/images/3redrectangle.svg', 'isPR': False, 'isNPE': True, 'stageName': 'WcstStage.blockTrials', 'ruleAtThatTime': 'colour'}",False,True,False,951533.7000000179,3263.600000023842,False,1.0
Qv0jhW3sqicqQvd7LfReAsI7nD73,2,,two_black_rectangle,2,2213.5999999940395,star,2025-09-02T15:17:09.159,2,False,blue,assets/images/2bluestar.svg,WcstStage.blockTrials,colour,Qv0jhW3sqicqQvd7LfReAsI7nD73,952547.900000006,wcst,0.0,colour,"{'trialIndexInBlock': 2, 'chosenCard': 'two_black_rectangle', 'cardShape': 'star', 'isPE': False, 'cardNumber': 2, 'cardColor': 'blue', 'targetCardPath': 'assets/images/2bluestar.svg', 'isPR': False, 'isNPE': True, 'stageName': 'WcstStage.blockTrials', 'ruleAtThatTime': 'colour'}",False,True,False,954761.5,2213.5999999940395,False,2.0
Qv0jhW3sqicqQvd7LfReAsI7nD73,3,,three_blue_star,3,1371.4000000059605,star,2025-09-02T15:17:11.556,4,False,red,assets/images/4redstar.svg,WcstStage.blockTrials,colour,Qv0jhW3sqicqQvd7LfReAsI7nD73,955786.400000006,wcst,0.0,colour,"{'trialIndexInBlock': 3, 'chosenCard': 'three_blue_star', 'cardShape': 'star', 'isPE': False, 'cardNumber': 4, 'cardColor': 'red', 'targetCardPath': 'assets/images/4redstar.svg', 'isPR': False, 'isNPE': True, 'stageName': 'WcstStage.blockTrials', 'ruleAtThatTime': 'colour'}",False,True,False,957157.8000000119,1371.4000000059605,False,3.0
Qv0jhW3sqicqQvd7LfReAsI7nD73,4,,four_red_triangle,4,3091.0,triangle,2025-09-02T15:17:15.675,3,False,yellow,assets/images/3yellowtriangle.svg,WcstStage.blockTrials,colour,Qv0jhW3sqicqQvd7LfReAsI7nD73,958185.8000000119,wcst,0.0,colour,"{'trialIndexInBlock': 4, 'chosenCard': 'four_red_triangle', 'cardShape': 'triangle', 'isPE': False, 'cardNumber': 3, 'cardColor': 'yellow', 'targetCardPath': 'assets/images/3yellowtriangle.svg', 'isPR': False, 'isNPE': True, 'stageName': 'WcstStage.blockTrials', 'ruleAtThatTime': 'colour'}",False,True,False,961276.8000000119,3091.0,False,4.0
Qv0jhW3sqicqQvd7LfReAsI7nD73,5,,two_black_rectangle,5,2352.0,circle,2025-09-02T15:17:19.052,4,True,black,assets/images/4blackcircle.svg,WcstStage.blockTrials,colour,Qv0jhW3sqicqQvd7LfReAsI7nD73,962301.7000000179,wcst,0.0,colour,"{'trialIndexInBlock': 5, 'chosenCard': 'two_black_rectangle', 'cardShape': 'circle', 'isPE': False, 'cardNumber': 4, 'cardColor': 'black', 'targetCardPath': 'assets/images/4blackcircle.svg', 'isPR': False, 'isNPE': False, 'stageName': 'WcstStage.blockTrials', 'ruleAtThatTime': 'colour'}",False,False,False,964653.7000000179,2352.0,False,5.0
Qv0jhW3sqicqQvd7LfReAsI7nD73,6,,one_yellow_circle,6,1233.0,triangle,2025-09-02T15:17:21.300,1,True,yellow,assets/images/1yellowtriangle.svg,WcstStage.blockTrials,colour,Qv0jhW3sqicqQvd7LfReAsI7nD73,965668.7000000179,wcst,0.0,colour,"{'trialIndexInBlock': 6, 'chosenCard': 'one_yellow_circle', 'cardShape': 'triangle', 'isPE': False, 'cardNumber': 1, 'cardColor': 'yellow', 'targetCardPath': 'assets/images/1yellowtriangle.svg', 'isPR': False, 'isNPE': False, 'stageName': 'WcstStage.blockTrials', 'ruleAtThatTime': 'colour'}",False,False,False,966901.7000000179,1233.0,False,6.0
Qv0jhW3sqicqQvd7LfReAsI7nD73,7,,four_red_triangle,7,1062.1000000238419,rectangle,2025-09-02T15:17:23.384,4,True,red,assets/images/4redrectangle.svg,WcstStage.blockTrials,colour,Qv0jhW3sqicqQvd7LfReAsI7nD73,967923.599999994,wcst,0.0,colour,"{'trialIndexInBlock': 7, 'chosenCard': 'four_red_triangle', 'cardShape': 'rectangle', 'isPE': False, 'cardNumber': 4, 'cardColor': 'red', 'targetCardPath': 'assets/images/4redrectangle.svg', 'isPR': False, 'isNPE': False, 'stageName': 'WcstStage.blockTrials', 'ruleAtThatTime': 'colour'}",False,False,False,968985.7000000179,1062.1000000238419,False,7.0
Qv0jhW3sqicqQvd7LfReAsI7nD73,8,,two_black_rectangle,8,940.7000000178814,triangle,2025-09-02T15:17:25.340,1,True,black,assets/images/1blacktriangle.svg,WcstStage.blockTrials,colour,Qv0jhW3sqicqQvd7LfReAsI7nD73,970001.0,wcst,0.0,colour,"{'trialIndexInBlock': 8, 'chosenCard': 'two_black_rectangle', 'cardShape': 'triangle', 'isPE': False, 'cardNumber': 1, 'cardColor': 'black', 'targetCardPath': 'assets/images/1blacktriangle.svg', 'isPR': False, 'isNPE': False, 'stageName': 'WcstStage.blockTrials', 'ruleAtThatTime': 'colour'}",False,False,False,970941.7000000179,940.7000000178814,False,8.0
Qv0jhW3sqicqQvd7LfReAsI7nD73,9,,three_blue_star,9,833.2000000178814,rectangle,2025-09-02T15:17:27.200,2,True,blue,assets/images/2bluerectangle.svg,WcstStage.blockTrials,colour,Qv0jhW3sqicqQvd7LfReAsI7nD73,971968.599999994,wcst,0.0,colour,"{'trialIndexInBlock': 9, 'chosenCard': 'three_blue_star', 'cardShape': 'rectangle', 'isPE': False, 'cardNumber': 2, 'cardColor': 'blue', 'targetCardPath': 'assets/images/2bluerectangle.svg', 'isPR': False, 'isNPE': False, 'stageName': 'WcstStage.blockTrials', 'ruleAtThatTime': 'colour'}",False,False,False,972801.8000000119,833.2000000178814,False,9.0
Qv0jhW3sqicqQvd7LfReAsI7nD73,10,,three_blue_star,10,869.5,triangle,2025-09-02T15:17:29.086,2,True,blue,assets/images/2bluetriangle.svg,WcstStage.blockTrials,colour,Qv0jhW3sqicqQvd7LfReAsI7nD73,973818.2000000179,wcst,0.0,colour,"{'trialIndexInBlock': 10, 'chosenCard': 'three_blue_star', 'cardShape': 'triangle', 'isPE': False, 'cardNumber': 2, 'cardColor': 'blue', 'targetCardPath': 'assets/images/2bluetriangle.svg', 'isPR': False, 'isNPE': False, 'stageName': 'WcstStage.blockTrials', 'ruleAtThatTime': 'colour'}",False,False,False,974687.7000000179,869.5,False,10.0
Qv0jhW3sqicqQvd7LfReAsI7nD73,11,,three_blue_star,11,699.7000000178814,circle,2025-09-02T15:17:30.812,1,True,blue,assets/images/1bluecircle.svg,WcstStage.blockTrials,colour,Qv0jhW3sqicqQvd7LfReAsI7nD73,975714.0,wcst,0.0,colour,"{'trialIndexInBlock': 11, 'chosenCard': 'three_blue_star', 'cardShape': 'circle', 'isPE': False, 'cardNumber': 1, 'cardColor': 'blue', 'targetCardPath': 'assets/images/1bluecircle.svg', 'isPR': False, 'isNPE': False, 'stageName': 'WcstStage.blockTrials', 'ruleAtThatTime': 'colour'}",False,False,False,976413.7000000179,699.7000000178814,False,11.0
Qv0jhW3sqicqQvd7LfReAsI7nD73,12,,one_yellow_circle,12,977.0,circle,2025-09-02T15:17:32.810,2,True,yellow,assets/images/2yellowcircle.svg,WcstStage.blockTrials,colour,Qv0jhW3sqicqQvd7LfReAsI7nD73,977434.900000006,wcst,0.0,colour,"{'trialIndexInBlock': 12, 'chosenCard': 'one_yellow_circle', 'cardShape': 'circle', 'isPE': False, 'cardNumber': 2, 'cardColor': 'yellow', 'targetCardPath': 'assets/images/2yellowcircle.svg', 'isPR': False, 'isNPE': False, 'stageName': 'WcstStage.blockTrials', 'ruleAtThatTime': 'colour'}",False,False,False,978411.900000006,977.0,False,12.0
Qv0jhW3sqicqQvd7LfReAsI7nD73,13,,three_blue_star,13,850.1000000238419,triangle,2025-09-02T15:17:34.684,3,True,blue,assets/images/3bluetriangle.svg,WcstStage.blockTrials,colour,Qv0jhW3sqicqQvd7LfReAsI7nD73,979435.599999994,wcst,0.0,colour,"{'trialIndexInBlock': 13, 'chosenCard': 'three_blue_star', 'cardShape': 'triangle', 'isPE': False, 'cardNumber': 3, 'cardColor': 'blue', 'targetCardPath': 'assets/images/3bluetriangle.svg', 'isPR': False, 'isNPE': False, 'stageName': 'WcstStage.blockTrials', 'ruleAtThatTime': 'colour'}",False,False,False,980285.7000000179,850.1000000238419,False,13.0
Qv0jhW3sqicqQvd7LfReAsI7nD73,14,,one_yellow_circle,14,904.3000000119209,star,2025-09-02T15:17:36.602,4,True,yellow,assets/images/4yellowstar.svg,WcstStage.blockTrials,colour,Qv0jhW3sqicqQvd7LfReAsI7nD73,981299.5,wcst,0.0,colour,"{'trialIndexInBlock': 14, 'chosenCard': 'one_yellow_circle', 'cardShape': 'star', 'isPE': False, 'cardNumber': 4, 'cardColor': 'yellow', 'targetCardPath': 'assets/images/4yellowstar.svg', 'isPR': False, 'isNPE': False, 'stageName': 'WcstStage.blockTrials', 'ruleAtThatTime': 'colour'}",False,False,False,982203.8000000119,904.3000000119209,False,14.0
Qv0jhW3sqicqQvd7LfReAsI7nD73,15,,three_blue_star,15,458.30000001192093,triangle,2025-09-02T15:17:38.084,4,False,blue,assets/images/4bluetriangle.svg,WcstStage.blockTrials,shape,Qv0jhW3sqicqQvd7LfReAsI7nD73,983227.599999994,wcst,0.0,shape,"{'trialIndexInBlock': 15, 'chosenCard': 'three_blue_star', 'cardShape': 'triangle', 'isPE': True, 'cardNumber': 4, 'cardColor': 'blue', 'targetCardPath': 'assets/images/4bluetriangle.svg', 'isPR': True, 'isNPE': False, 'stageName': 'WcstStage.blockTrials', 'ruleAtThatTime': 'shape'}",False,False,True,983685.900000006,458.30000001192093,True,15.0
Qv0jhW3sqicqQvd7LfReAsI7nD73,16,,four_red_triangle,16,1200.5,triangle,2025-09-02T15:17:40.304,2,True,red,assets/images/2redtriangle.svg,WcstStage.blockTrials,shape,Qv0jhW3sqicqQvd7LfReAsI7nD73,984705.2000000179,wcst,0.0,shape,"{'trialIndexInBlock': 16, 'chosenCard': 'four_red_triangle', 'cardShape': 'triangle', 'isPE': False, 'cardNumber': 2, 'cardColor': 'red', 'targetCardPath': 'assets/images/2redtriangle.svg', 'isPR': True, 'isNPE': False, 'stageName': 'WcstStage.blockTrials', 'ruleAtThatTime': 'shape'}",False,False,False,985905.7000000179,1200.5,True,16.0
Qv0jhW3sqicqQvd7LfReAsI7nD73,17,,two_black_rectangle,17,1624.4000000059605,rectangle,2025-09-02T15:17:42.943,2,True,yellow,assets/images/2yellowrectangle.svg,WcstStage.blockTrials,shape,Qv0jhW3sqicqQvd7LfReAsI7nD73,986920.900000006,wcst,0.0,shape,"{'trialIndexInBlock': 17, 'chosenCard': 'two_black_rectangle', 'cardShape': 'rectangle', 'isPE': False, 'cardNumber': 2, 'cardColor': 'yellow', 'targetCardPath': 'assets/images/2yellowrectangle.svg', 'isPR': False, 'isNPE': False, 'stageName': 'WcstStage.blockTrials', 'ruleAtThatTime': 'shape'}",False,False,False,988545.3000000119,1624.4000000059605,False,17.0
Qv0jhW3sqicqQvd7LfReAsI7nD73,18,,three_blue_star,18,822.3000000119209,rectangle,2025-09-02T15:17:44.794,1,False,blue,assets/images/1bluerectangle.svg,WcstStage.blockTrials,shape,Qv0jhW3sqicqQvd7LfReAsI7nD73,989573.400000006,wcst,0.0,shape,"{'trialIndexInBlock': 18, 'chosenCard': 'three_blue_star', 'cardShape': 'rectangle', 'isPE': True, 'cardNumber': 1, 'cardColor': 'blue', 'targetCardPath': 'assets/images/1bluerectangle.svg', 'isPR': True, 'isNPE': False, 'stageName': 'WcstStage.blockTrials', 'ruleAtThatTime': 'shape'}",False,False,True,990395.7000000179,822.3000000119209,True,18.0
Qv0jhW3sqicqQvd7LfReAsI7nD73,19,,two_black_rectangle,19,1078.0999999940395,rectangle,2025-09-02T15:17:46.894,3,True,black,assets/images/3blackrectangle.svg,WcstStage.blockTrials,shape,Qv0jhW3sqicqQvd7LfReAsI7nD73,991418.0,wcst,0.0,shape,"{'trialIndexInBlock': 19, 'chosenCard': 'two_black_rectangle', 'cardShape': 'rectangle', 'isPE': False, 'cardNumber': 3, 'cardColor': 'black', 'targetCardPath': 'assets/images/3blackrectangle.svg', 'isPR': True, 'isNPE': False, 'stageName': 'WcstStage.blockTrials', 'ruleAtThatTime': 'shape'}",False,False,False,992496.099999994,1078.0999999940395,True,19.0
Qv0jhW3sqicqQvd7LfReAsI7nD73,20,,four_red_triangle,20,820.7000000178814,triangle,2025-09-02T15:17:48.740,4,True,red,assets/images/4redtriangle.svg,WcstStage.blockTrials,shape,Qv0jhW3sqicqQvd7LfReAsI7nD73,993521.099999994,wcst,0.0,shape,"{'trialIndexInBlock': 20, 'chosenCard': 'four_red_triangle', 'cardShape': 'triangle', 'isPE': False, 'cardNumber': 4, 'cardColor': 'red', 'targetCardPath': 'assets/images/4redtriangle.svg', 'isPR': True, 'isNPE': False, 'stageName': 'WcstStage.blockTrials', 'ruleAtThatTime': 'shape'}",False,False,False,994341.8000000119,820.7000000178814,True,20.0
Qv0jhW3sqicqQvd7LfReAsI7nD73,21,,three_blue_star,21,2574.5,star,2025-09-02T15:17:52.336,1,True,yellow,assets/images/1yellowstar.svg,WcstStage.blockTrials,shape,Qv0jhW3sqicqQvd7LfReAsI7nD73,995363.2000000179,wcst,0.0,shape,"{'trialIndexInBlock': 21, 'chosenCard': 'three_blue_star', 'cardShape': 'star', 'isPE': False, 'cardNumber': 1, 'cardColor': 'yellow', 'targetCardPath': 'assets/images/1yellowstar.svg', 'isPR': False, 'isNPE': False, 'stageName': 'WcstStage.blockTrials', 'ruleAtThatTime': 'shape'}",False,False,False,997937.7000000179,2574.5,False,21.0
Qv0jhW3sqicqQvd7LfReAsI7nD73,22,,four_red_triangle,22,1096.0999999940395,triangle,2025-09-02T15:17:54.449,2,True,black,assets/images/2blacktriangle.svg,WcstStage.blockTrials,shape,Qv0jhW3sqicqQvd7LfReAsI7nD73,998955.400000006,wcst,0.0,shape,"{'trialIndexInBlock': 22, 'chosenCard': 'four_red_triangle', 'cardShape': 'triangle', 'isPE': False, 'cardNumber': 2, 'cardColor': 'black', 'targetCardPath': 'assets/images/2blacktriangle.svg', 'isPR': False, 'isNPE': False, 'stageName': 'WcstStage.blockTrials', 'ruleAtThatTime': 'shape'}",False,False,False,1000051.5,1096.0999999940395,False,22.0
Qv0jhW3sqicqQvd7LfReAsI7nD73,23,,two_black_rectangle,23,675.1000000238419,rectangle,2025-09-02T15:17:56.140,2,True,black,assets/images/2blackrectangle.svg,WcstStage.blockTrials,shape,Qv0jhW3sqicqQvd7LfReAsI7nD73,1001066.599999994,wcst,0.0,shape,"{'trialIndexInBlock': 23, 'chosenCard': 'two_black_rectangle', 'cardShape': 'rectangle', 'isPE': False, 'cardNumber': 2, 'cardColor': 'black', 'targetCardPath': 'assets/images/2blackrectangle.svg', 'isPR': True, 'isNPE': False, 'stageName': 'WcstStage.blockTrials', 'ruleAtThatTime': 'shape'}",False,False,False,1001741.7000000179,675.1000000238419,True,23.0
Qv0jhW3sqicqQvd7LfReAsI7nD73,24,,four_red_triangle,24,1131.199999988079,triangle,2025-09-02T15:17:58.295,1,True,blue,assets/images/1bluetriangle.svg,WcstStage.blockTrials,shape,Qv0jhW3sqicqQvd7LfReAsI7nD73,1002765.400000006,wcst,0.0,shape,"{'trialIndexInBlock': 24, 'chosenCard': 'four_red_triangle', 'cardShape': 'triangle', 'isPE': False, 'cardNumber': 1, 'cardColor': 'blue', 'targetCardPath': 'assets/images/1bluetriangle.svg', 'isPR': False, 'isNPE': False, 'stageName': 'WcstStage.blockTrials', 'ruleAtThatTime': 'shape'}",False,False,False,1003896.599999994,1131.199999988079,False,24.0
Qv0jhW3sqicqQvd7LfReAsI7nD73,25,,three_blue_star,25,1053.0999999940395,star,2025-09-02T15:18:00.361,4,True,black,assets/images/4blackstar.svg,WcstStage.blockTrials,shape,Qv0jhW3sqicqQvd7LfReAsI7nD73,1004910.3000000119,wcst,0.0,shape,"{'trialIndexInBlock': 25, 'chosenCard': 'three_blue_star', 'cardShape': 'star', 'isPE': False, 'cardNumber': 4, 'cardColor': 'black', 'targetCardPath': 'assets/images/4blackstar.svg', 'isPR': False, 'isNPE': False, 'stageName': 'WcstStage.blockTrials', 'ruleAtThatTime': 'shape'}",False,False,False,1005963.400000006,1053.0999999940395,False,25.0
Qv0jhW3sqicqQvd7LfReAsI7nD73,26,,one_yellow_circle,26,1283.7000000178814,circle,2025-09-02T15:18:02.670,3,True,red,assets/images/3redcircle.svg,WcstStage.blockTrials,shape,Qv0jhW3sqicqQvd7LfReAsI7nD73,1006988.099999994,wcst,0.0,shape,"{'trialIndexInBlock': 26, 'chosenCard': 'one_yellow_circle', 'cardShape': 'circle', 'isPE': False, 'cardNumber': 3, 'cardColor': 'red', 'targetCardPath': 'assets/images/3redcircle.svg', 'isPR': False, 'isNPE': False, 'stageName': 'WcstStage.blockTrials', 'ruleAtThatTime': 'shape'}",False,False,False,1008271.8000000119,1283.7000000178814,False,26.0
Qv0jhW3sqicqQvd7LfReAsI7nD73,27,,two_black_rectangle,27,742.3000000119209,rectangle,2025-09-02T15:18:04.436,1,True,black,assets/images/1blackrectangle.svg,WcstStage.blockTrials,shape,Qv0jhW3sqicqQvd7LfReAsI7nD73,1009295.5,wcst,0.0,shape,"{'trialIndexInBlock': 27, 'chosenCard': 'two_black_rectangle', 'cardShape': 'rectangle', 'isPE': False, 'cardNumber': 1, 'cardColor': 'black', 'targetCardPath': 'assets/images/1blackrectangle.svg', 'isPR': True, 'isNPE': False, 'stageName': 'WcstStage.blockTrials', 'ruleAtThatTime': 'shape'}",False,False,False,1010037.8000000119,742.3000000119209,True,27.0
Qv0jhW3sqicqQvd7LfReAsI7nD73,28,,three_blue_star,28,1286.5,star,2025-09-02T15:18:06.740,1,True,red,assets/images/1redstar.svg,WcstStage.blockTrials,shape,Qv0jhW3sqicqQvd7LfReAsI7nD73,1011055.2000000179,wcst,0.0,shape,"{'trialIndexInBlock': 28, 'chosenCard': 'three_blue_star', 'cardShape': 'star', 'isPE': False, 'cardNumber': 1, 'cardColor': 'red', 'targetCardPath': 'assets/images/1redstar.svg', 'isPR': False, 'isNPE': False, 'stageName': 'WcstStage.blockTrials', 'ruleAtThatTime': 'shape'}",False,False,False,1012341.7000000179,1286.5,False,28.0
Qv0jhW3sqicqQvd7LfReAsI7nD73,29,,four_red_triangle,29,1333.800000011921,triangle,2025-09-02T15:18:09.095,4,True,yellow,assets/images/4yellowtriangle.svg,WcstStage.blockTrials,number,Qv0jhW3sqicqQvd7LfReAsI7nD73,1013363.5,wcst,0.0,number,"{'trialIndexInBlock': 29, 'chosenCard': 'four_red_triangle', 'cardShape': 'triangle', 'isPE': False, 'cardNumber': 4, 'cardColor': 'yellow', 'targetCardPath': 'assets/images/4yellowtriangle.svg', 'isPR': True, 'isNPE': False, 'stageName': 'WcstStage.blockTrials', 'ruleAtThatTime': 'number'}",False,False,False,1014697.3000000119,1333.800000011921,True,29.0
Qv0jhW3sqicqQvd7LfReAsI7nD73,30,,three_blue_star,30,775.9000000059605,star,2025-09-02T15:18:10.888,1,False,blue,assets/images/1bluestar.svg,WcstStage.blockTrials,number,Qv0jhW3sqicqQvd7LfReAsI7nD73,1015713.900000006,wcst,0.0,number,"{'trialIndexInBlock': 30, 'chosenCard': 'three_blue_star', 'cardShape': 'star', 'isPE': True, 'cardNumber': 1, 'cardColor': 'blue', 'targetCardPath': 'assets/images/1bluestar.svg', 'isPR': True, 'isNPE': False, 'stageName': 'WcstStage.blockTrials', 'ruleAtThatTime': 'number'}",False,False,True,1016489.8000000119,775.9000000059605,True,30.0
Qv0jhW3sqicqQvd7LfReAsI7nD73,31,,two_black_rectangle,31,1543.699999988079,star,2025-09-02T15:18:13.448,2,True,black,assets/images/2blackstar.svg,WcstStage.blockTrials,number,Qv0jhW3sqicqQvd7LfReAsI7nD73,1017506.2000000179,wcst,0.0,number,"{'trialIndexInBlock': 31, 'chosenCard': 'two_black_rectangle', 'cardShape': 'star', 'isPE': False, 'cardNumber': 2, 'cardColor': 'black', 'targetCardPath': 'assets/images/2blackstar.svg', 'isPR': False, 'isNPE': False, 'stageName': 'WcstStage.blockTrials', 'ruleAtThatTime': 'number'}",False,False,False,1019049.900000006,1543.699999988079,False,31.0
Qv0jhW3sqicqQvd7LfReAsI7nD73,32,,two_black_rectangle,32,870.5,triangle,2025-09-02T15:18:15.354,3,False,black,assets/images/3blacktriangle.svg,WcstStage.blockTrials,number,Qv0jhW3sqicqQvd7LfReAsI7nD73,1020085.400000006,wcst,0.0,number,"{'trialIndexInBlock': 32, 'chosenCard': 'two_black_rectangle', 'cardShape': 'triangle', 'isPE': False, 'cardNumber': 3, 'cardColor': 'black', 'targetCardPath': 'assets/images/3blacktriangle.svg', 'isPR': False, 'isNPE': True, 'stageName': 'WcstStage.blockTrials', 'ruleAtThatTime': 'number'}",False,True,False,1020955.900000006,870.5,False,32.0
Qv0jhW3sqicqQvd7LfReAsI7nD73,33,,two_black_rectangle,33,2492.5,rectangle,2025-09-02T15:18:18.863,3,False,yellow,assets/images/3yellowrectangle.svg,WcstStage.blockTrials,number,Qv0jhW3sqicqQvd7LfReAsI7nD73,1021972.900000006,wcst,0.0,number,"{'trialIndexInBlock': 33, 'chosenCard': 'two_black_rectangle', 'cardShape': 'rectangle', 'isPE': True, 'cardNumber': 3, 'cardColor': 'yellow', 'targetCardPath': 'assets/images/3yellowrectangle.svg', 'isPR': True, 'isNPE': False, 'stageName': 'WcstStage.blockTrials', 'ruleAtThatTime': 'number'}",False,False,True,1024465.400000006,2492.5,True,33.0
Qv0jhW3sqicqQvd7LfReAsI7nD73,34,,two_black_rectangle,34,4426.199999988079,rectangle,2025-09-02T15:18:24.326,2,True,red,assets/images/2redrectangle.svg,WcstStage.blockTrials,number,Qv0jhW3sqicqQvd7LfReAsI7nD73,1025501.7000000179,wcst,0.0,number,"{'trialIndexInBlock': 34, 'chosenCard': 'two_black_rectangle', 'cardShape': 'rectangle', 'isPE': False, 'cardNumber': 2, 'cardColor': 'red', 'targetCardPath': 'assets/images/2redrectangle.svg', 'isPR': True, 'isNPE': False, 'stageName': 'WcstStage.blockTrials', 'ruleAtThatTime': 'number'}",False,False,False,1029927.900000006,4426.199999988079,True,34.0
Qv0jhW3sqicqQvd7LfReAsI7nD73,35,,three_blue_star,35,1124.2999999821186,circle,2025-09-02T15:18:26.476,3,True,yellow,assets/images/3yellowcircle.svg,WcstStage.blockTrials,number,Qv0jhW3sqicqQvd7LfReAsI7nD73,1030953.3000000119,wcst,0.0,number,"{'trialIndexInBlock': 35, 'chosenCard': 'three_blue_star', 'cardShape': 'circle', 'isPE': False, 'cardNumber': 3, 'cardColor': 'yellow', 'targetCardPath': 'assets/images/3yellowcircle.svg', 'isPR': False, 'isNPE': False, 'stageName': 'WcstStage.blockTrials', 'ruleAtThatTime': 'number'}",False,False,False,1032077.599999994,1124.2999999821186,False,35.0
Qv0jhW3sqicqQvd7LfReAsI7nD73,36,,two_black_rectangle,36,608.7000000178814,star,2025-09-02T15:18:28.097,2,True,yellow,assets/images/2yellowstar.svg,WcstStage.blockTrials,number,Qv0jhW3sqicqQvd7LfReAsI7nD73,1033090.099999994,wcst,0.0,number,"{'trialIndexInBlock': 36, 'chosenCard': 'two_black_rectangle', 'cardShape': 'star', 'isPE': False, 'cardNumber': 2, 'cardColor': 'yellow', 'targetCardPath': 'assets/images/2yellowstar.svg', 'isPR': False, 'isNPE': False, 'stageName': 'WcstStage.blockTrials', 'ruleAtThatTime': 'number'}",False,False,False,1033698.8000000119,608.7000000178814,False,36.0
Qv0jhW3sqicqQvd7LfReAsI7nD73,37,,one_yellow_circle,37,804.5999999940395,circle,2025-09-02T15:18:29.915,1,True,black,assets/images/1blackcircle.svg,WcstStage.blockTrials,number,Qv0jhW3sqicqQvd7LfReAsI7nD73,1034713.0,wcst,0.0,number,"{'trialIndexInBlock': 37, 'chosenCard': 'one_yellow_circle', 'cardShape': 'circle', 'isPE': False, 'cardNumber': 1, 'cardColor': 'black', 'targetCardPath': 'assets/images/1blackcircle.svg', 'isPR': True, 'isNPE': False, 'stageName': 'WcstStage.blockTrials', 'ruleAtThatTime': 'number'}",False,False,False,1035517.599999994,804.5999999940395,True,37.0
Qv0jhW3sqicqQvd7LfReAsI7nD73,38,,four_red_triangle,38,1167.0,star,2025-09-02T15:18:32.106,4,True,blue,assets/images/4bluestar.svg,WcstStage.blockTrials,number,Qv0jhW3sqicqQvd7LfReAsI7nD73,1036540.900000006,wcst,0.0,number,"{'trialIndexInBlock': 38, 'chosenCard': 'four_red_triangle', 'cardShape': 'star', 'isPE': False, 'cardNumber': 4, 'cardColor': 'blue', 'targetCardPath': 'assets/images/4bluestar.svg', 'isPR': False, 'isNPE': False, 'stageName': 'WcstStage.blockTrials', 'ruleAtThatTime': 'number'}",False,False,False,1037707.900000006,1167.0,False,38.0
Qv0jhW3sqicqQvd7LfReAsI7nD73,39,,one_yellow_circle,39,692.5,rectangle,2025-09-02T15:18:33.826,1,True,red,assets/images/1redrectangle.svg,WcstStage.blockTrials,number,Qv0jhW3sqicqQvd7LfReAsI7nD73,1038735.3000000119,wcst,0.0,number,"{'trialIndexInBlock': 39, 'chosenCard': 'one_yellow_circle', 'cardShape': 'rectangle', 'isPE': False, 'cardNumber': 1, 'cardColor': 'red', 'targetCardPath': 'assets/images/1redrectangle.svg', 'isPR': False, 'isNPE': False, 'stageName': 'WcstStage.blockTrials', 'ruleAtThatTime': 'number'}",False,False,False,1039427.8000000119,692.5,False,39.0
Qv0jhW3sqicqQvd7LfReAsI7nD73,40,,four_red_triangle,40,679.6999999880791,circle,2025-09-02T15:18:35.530,4,True,yellow,assets/images/4yellowcircle.svg,WcstStage.blockTrials,number,Qv0jhW3sqicqQvd7LfReAsI7nD73,1040452.2000000179,wcst,0.0,number,"{'trialIndexInBlock': 40, 'chosenCard': 'four_red_triangle', 'cardShape': 'circle', 'isPE': False, 'cardNumber': 4, 'cardColor': 'yellow', 'targetCardPath': 'assets/images/4yellowcircle.svg', 'isPR': False, 'isNPE': False, 'stageName': 'WcstStage.blockTrials', 'ruleAtThatTime': 'number'}",False,False,False,1041131.900000006,679.6999999880791,False,40.0
Qv0jhW3sqicqQvd7LfReAsI7nD73,41,,three_blue_star,41,704.3000000119209,star,2025-09-02T15:18:37.250,3,True,yellow,assets/images/3yellowstar.svg,WcstStage.blockTrials,number,Qv0jhW3sqicqQvd7LfReAsI7nD73,1042148.099999994,wcst,0.0,number,"{'trialIndexInBlock': 41, 'chosenCard': 'three_blue_star', 'cardShape': 'star', 'isPE': False, 'cardNumber': 3, 'cardColor': 'yellow', 'targetCardPath': 'assets/images/3yellowstar.svg', 'isPR': True, 'isNPE': False, 'stageName': 'WcstStage.blockTrials', 'ruleAtThatTime': 'number'}",False,False,False,1042852.400000006,704.3000000119209,True,41.0
Qv0jhW3sqicqQvd7LfReAsI7nD73,42,,four_red_triangle,42,878.6999999880791,circle,2025-09-02T15:18:39.152,4,True,red,assets/images/4redcircle.svg,WcstStage.blockTrials,number,Qv0jhW3sqicqQvd7LfReAsI7nD73,1043875.2000000179,wcst,0.0,number,"{'trialIndexInBlock': 42, 'chosenCard': 'four_red_triangle', 'cardShape': 'circle', 'isPE': False, 'cardNumber': 4, 'cardColor': 'red', 'targetCardPath': 'assets/images/4redcircle.svg', 'isPR': False, 'isNPE': False, 'stageName': 'WcstStage.blockTrials', 'ruleAtThatTime': 'number'}",False,False,False,1044753.900000006,878.6999999880791,False,42.0
Qv0jhW3sqicqQvd7LfReAsI7nD73,43,,three_blue_star,43,737.9000000059605,circle,2025-09-02T15:18:40.910,3,True,black,assets/images/3blackcircle.svg,WcstStage.blockTrials,number,Qv0jhW3sqicqQvd7LfReAsI7nD73,1045773.900000006,wcst,0.0,number,"{'trialIndexInBlock': 43, 'chosenCard': 'three_blue_star', 'cardShape': 'circle', 'isPE': False, 'cardNumber': 3, 'cardColor': 'black', 'targetCardPath': 'assets/images/3blackcircle.svg', 'isPR': False, 'isNPE': False, 'stageName': 'WcstStage.blockTrials', 'ruleAtThatTime': 'number'}",False,False,False,1046511.8000000119,737.9000000059605,False,43.0
Qv0jhW3sqicqQvd7LfReAsI7nD73,44,,two_black_rectangle,44,493.39999997615814,circle,2025-09-02T15:18:42.416,2,False,blue,assets/images/2bluecircle.svg,WcstStage.blockTrials,colour,Qv0jhW3sqicqQvd7LfReAsI7nD73,1047524.2000000179,wcst,0.0,colour,"{'trialIndexInBlock': 44, 'chosenCard': 'two_black_rectangle', 'cardShape': 'circle', 'isPE': True, 'cardNumber': 2, 'cardColor': 'blue', 'targetCardPath': 'assets/images/2bluecircle.svg', 'isPR': True, 'isNPE': False, 'stageName': 'WcstStage.blockTrials', 'ruleAtThatTime': 'colour'}",False,False,True,1048017.599999994,493.39999997615814,True,44.0
Qv0jhW3sqicqQvd7LfReAsI7nD73,45,,two_black_rectangle,45,2198.4000000059605,circle,2025-09-02T15:18:45.650,2,True,black,assets/images/2blackcircle.svg,WcstStage.blockTrials,colour,Qv0jhW3sqicqQvd7LfReAsI7nD73,1049053.400000006,wcst,0.0,colour,"{'trialIndexInBlock': 45, 'chosenCard': 'two_black_rectangle', 'cardShape': 'circle', 'isPE': False, 'cardNumber': 2, 'cardColor': 'black', 'targetCardPath': 'assets/images/2blackcircle.svg', 'isPR': True, 'isNPE': False, 'stageName': 'WcstStage.blockTrials', 'ruleAtThatTime': 'colour'}",False,False,False,1051251.800000012,2198.4000000059605,True,45.0
Qv0jhW3sqicqQvd7LfReAsI7nD73,46,,one_yellow_circle,46,1811.1000000238419,rectangle,2025-09-02T15:18:48.500,1,True,yellow,assets/images/1yellowrectangle.svg,WcstStage.blockTrials,colour,Qv0jhW3sqicqQvd7LfReAsI7nD73,1052291.099999994,wcst,0.0,colour,"{'trialIndexInBlock': 46, 'chosenCard': 'one_yellow_circle', 'cardShape': 'rectangle', 'isPE': False, 'cardNumber': 1, 'cardColor': 'yellow', 'targetCardPath': 'assets/images/1yellowrectangle.svg', 'isPR': True, 'isNPE': False, 'stageName': 'WcstStage.blockTrials', 'ruleAtThatTime': 'colour'}",False,False,False,1054102.2000000179,1811.1000000238419,True,46.0
Qv0jhW3sqicqQvd7LfReAsI7nD73,47,,four_red_triangle,47,971.3000000119209,star,2025-09-02T15:18:50.498,3,True,red,assets/images/3redstar.svg,WcstStage.blockTrials,colour,Qv0jhW3sqicqQvd7LfReAsI7nD73,1055129.099999994,wcst,0.0,colour,"{'trialIndexInBlock': 47, 'chosenCard': 'four_red_triangle', 'cardShape': 'star', 'isPE': False, 'cardNumber': 3, 'cardColor': 'red', 'targetCardPath': 'assets/images/3redstar.svg', 'isPR': False, 'isNPE': False, 'stageName': 'WcstStage.blockTrials', 'ruleAtThatTime': 'colour'}",False,False,False,1056100.400000006,971.3000000119209,False,47.0
Qv0jhW3sqicqQvd7LfReAsI7nD73,48,,three_blue_star,48,719.5,circle,2025-09-02T15:18:52.240,3,True,blue,assets/images/3bluecircle.svg,WcstStage.blockTrials,colour,Qv0jhW3sqicqQvd7LfReAsI7nD73,1057122.300000012,wcst,0.0,colour,"{'trialIndexInBlock': 48, 'chosenCard': 'three_blue_star', 'cardShape': 'circle', 'isPE': False, 'cardNumber': 3, 'cardColor': 'blue', 'targetCardPath': 'assets/images/3bluecircle.svg', 'isPR': True, 'isNPE': False, 'stageName': 'WcstStage.blockTrials', 'ruleAtThatTime': 'colour'}",False,False,False,1057841.800000012,719.5,True,48.0
Qv0jhW3sqicqQvd7LfReAsI7nD73,49,,three_blue_star,49,686.4000000059605,star,2025-09-02T15:18:53.942,3,True,blue,assets/images/3bluestar.svg,WcstStage.blockTrials,colour,Qv0jhW3sqicqQvd7LfReAsI7nD73,1058857.400000006,wcst,0.0,colour,"{'trialIndexInBlock': 49, 'chosenCard': 'three_blue_star', 'cardShape': 'star', 'isPE': False, 'cardNumber': 3, 'cardColor': 'blue', 'targetCardPath': 'assets/images/3bluestar.svg', 'isPR': True, 'isNPE': False, 'stageName': 'WcstStage.blockTrials', 'ruleAtThatTime': 'colour'}",False,False,False,1059543.800000012,686.4000000059605,True,49.0
Qv0jhW3sqicqQvd7LfReAsI7nD73,50,,four_red_triangle,50,932.5,star,2025-09-02T15:18:55.900,2,True,red,assets/images/2redstar.svg,WcstStage.blockTrials,colour,Qv0jhW3sqicqQvd7LfReAsI7nD73,1060569.099999994,wcst,0.0,colour,"{'trialIndexInBlock': 50, 'chosenCard': 'four_red_triangle', 'cardShape': 'star', 'isPE': False, 'cardNumber': 2, 'cardColor': 'red', 'targetCardPath': 'assets/images/2redstar.svg', 'isPR': False, 'isNPE': False, 'stageName': 'WcstStage.blockTrials', 'ruleAtThatTime': 'colour'}",False,False,False,1061501.599999994,932.5,False,50.0
Qv0jhW3sqicqQvd7LfReAsI7nD73,51,,one_yellow_circle,51,716.5999999940395,triangle,2025-09-02T15:18:57.628,2,True,yellow,assets/images/2yellowtriangle.svg,WcstStage.blockTrials,colour,Qv0jhW3sqicqQvd7LfReAsI7nD73,1062513.300000012,wcst,0.0,colour,"{'trialIndexInBlock': 51, 'chosenCard': 'one_yellow_circle', 'cardShape': 'triangle', 'isPE': False, 'cardNumber': 2, 'cardColor': 'yellow', 'targetCardPath': 'assets/images/2yellowtriangle.svg', 'isPR': False, 'isNPE': False, 'stageName': 'WcstStage.blockTrials', 'ruleAtThatTime': 'colour'}",False,False,False,1063229.900000006,716.5999999940395,False,51.0
Qv0jhW3sqicqQvd7LfReAsI7nD73,52,,three_blue_star,52,953.4000000059605,rectangle,2025-09-02T15:18:59.604,3,True,blue,assets/images/3bluerectangle.svg,WcstStage.blockTrials,colour,Qv0jhW3sqicqQvd7LfReAsI7nD73,1064252.400000006,wcst,0.0,colour,"{'trialIndexInBlock': 52, 'chosenCard': 'three_blue_star', 'cardShape': 'rectangle', 'isPE': False, 'cardNumber': 3, 'cardColor': 'blue', 'targetCardPath': 'assets/images/3bluerectangle.svg', 'isPR': True, 'isNPE': False, 'stageName': 'WcstStage.blockTrials', 'ruleAtThatTime': 'colour'}",False,False,False,1065205.800000012,953.4000000059605,True,52.0
Qv0jhW3sqicqQvd7LfReAsI7nD73,53,,four_red_triangle,53,927.1999999880791,triangle,2025-09-02T15:19:01.558,1,True,red,assets/images/1redtriangle.svg,WcstStage.blockTrials,colour,Qv0jhW3sqicqQvd7LfReAsI7nD73,1066232.7000000179,wcst,0.0,colour,"{'trialIndexInBlock': 53, 'chosenCard': 'four_red_triangle', 'cardShape': 'triangle', 'isPE': False, 'cardNumber': 1, 'cardColor': 'red', 'targetCardPath': 'assets/images/1redtriangle.svg', 'isPR': False, 'isNPE': False, 'stageName': 'WcstStage.blockTrials', 'ruleAtThatTime': 'colour'}",False,False,False,1067159.900000006,927.1999999880791,False,53.0
Qv0jhW3sqicqQvd7LfReAsI7nD73,54,,two_black_rectangle,54,695.0999999940395,star,2025-09-02T15:19:03.294,1,True,black,assets/images/1blackstar.svg,WcstStage.blockTrials,colour,Qv0jhW3sqicqQvd7LfReAsI7nD73,1068200.800000012,wcst,0.0,colour,"{'trialIndexInBlock': 54, 'chosenCard': 'two_black_rectangle', 'cardShape': 'star', 'isPE': False, 'cardNumber': 1, 'cardColor': 'black', 'targetCardPath': 'assets/images/1blackstar.svg', 'isPR': False, 'isNPE': False, 'stageName': 'WcstStage.blockTrials', 'ruleAtThatTime': 'colour'}",False,False,False,1068895.900000006,695.0999999940395,False,54.0
Qv0jhW3sqicqQvd7LfReAsI7nD73,55,,three_blue_star,55,1242.0,circle,2025-09-02T15:19:05.548,4,False,blue,assets/images/4bluecircle.svg,WcstStage.blockTrials,shape,Qv0jhW3sqicqQvd7LfReAsI7nD73,1069907.900000006,wcst,0.0,shape,"{'trialIndexInBlock': 55, 'chosenCard': 'three_blue_star', 'cardShape': 'circle', 'isPE': True, 'cardNumber': 4, 'cardColor': 'blue', 'targetCardPath': 'assets/images/4bluecircle.svg', 'isPR': True, 'isNPE': False, 'stageName': 'WcstStage.blockTrials', 'ruleAtThatTime': 'shape'}",False,False,True,1071149.900000006,1242.0,True,55.0
Qv0jhW3sqicqQvd7LfReAsI7nD73,56,,four_red_triangle,56,2406.0,triangle,2025-09-02T15:19:08.986,4,True,black,assets/images/4blacktriangle.svg,WcstStage.blockTrials,shape,Qv0jhW3sqicqQvd7LfReAsI7nD73,1072181.800000012,wcst,0.0,shape,"{'trialIndexInBlock': 56, 'chosenCard': 'four_red_triangle', 'cardShape': 'triangle', 'isPE': False, 'cardNumber': 4, 'cardColor': 'black', 'targetCardPath': 'assets/images/4blacktriangle.svg', 'isPR': False, 'isNPE': False, 'stageName': 'WcstStage.blockTrials', 'ruleAtThatTime': 'shape'}",False,False,False,1074587.800000012,2406.0,False,56.0
Qv0jhW3sqicqQvd7LfReAsI7nD73,57,,three_blue_star,57,1474.0,star,2025-09-02T15:19:11.478,3,True,black,assets/images/3blackstar.svg,WcstStage.blockTrials,shape,Qv0jhW3sqicqQvd7LfReAsI7nD73,1075605.900000006,wcst,0.0,shape,"{'trialIndexInBlock': 57, 'chosenCard': 'three_blue_star', 'cardShape': 'star', 'isPE': False, 'cardNumber': 3, 'cardColor': 'black', 'targetCardPath': 'assets/images/3blackstar.svg', 'isPR': False, 'isNPE': False, 'stageName': 'WcstStage.blockTrials', 'ruleAtThatTime': 'shape'}",False,False,False,1077079.900000006,1474.0,False,57.0
Qv0jhW3sqicqQvd7LfReAsI7nD73,58,,one_yellow_circle,58,865.9000000059605,circle,2025-09-02T15:19:13.358,1,True,yellow,assets/images/1yellowcircle.svg,WcstStage.blockTrials,shape,Qv0jhW3sqicqQvd7LfReAsI7nD73,1078093.900000006,wcst,0.0,shape,"{'trialIndexInBlock': 58, 'chosenCard': 'one_yellow_circle', 'cardShape': 'circle', 'isPE': False, 'cardNumber': 1, 'cardColor': 'yellow', 'targetCardPath': 'assets/images/1yellowcircle.svg', 'isPR': True, 'isNPE': False, 'stageName': 'WcstStage.blockTrials', 'ruleAtThatTime': 'shape'}",False,False,False,1078959.800000012,865.9000000059605,True,58.0
Qv0jhW3sqicqQvd7LfReAsI7nD73,59,,two_black_rectangle,59,1200.699999988079,rectangle,2025-09-02T15:19:15.586,4,True,blue,assets/images/4bluerectangle.svg,WcstStage.blockTrials,shape,Qv0jhW3sqicqQvd7LfReAsI7nD73,1079986.900000006,wcst,0.0,shape,"{'trialIndexInBlock': 59, 'chosenCard': 'two_black_rectangle', 'cardShape': 'rectangle', 'isPE': False, 'cardNumber': 4, 'cardColor': 'blue', 'targetCardPath': 'assets/images/4bluerectangle.svg', 'isPR': False, 'isNPE': False, 'stageName': 'WcstStage.blockTrials', 'ruleAtThatTime': 'shape'}",False,False,False,1081187.599999994,1200.699999988079,False,59.0
Qv0jhW3sqicqQvd7LfReAsI7nD73,60,,four_red_triangle,60,856.0,triangle,2025-09-02T15:19:17.456,3,True,red,assets/images/3redtriangle.svg,WcstStage.blockTrials,shape,Qv0jhW3sqicqQvd7LfReAsI7nD73,1082201.800000012,wcst,0.0,shape,"{'trialIndexInBlock': 60, 'chosenCard': 'four_red_triangle', 'cardShape': 'triangle', 'isPE': False, 'cardNumber': 3, 'cardColor': 'red', 'targetCardPath': 'assets/images/3redtriangle.svg', 'isPR': True, 'isNPE': False, 'stageName': 'WcstStage.blockTrials', 'ruleAtThatTime': 'shape'}",False,False,False,1083057.800000012,856.0,True,60.0
Qv0jhW3sqicqQvd7LfReAsI7nD73,61,,one_yellow_circle,61,1138.199999988079,circle,2025-09-02T15:19:19.618,2,True,red,assets/images/2redcircle.svg,WcstStage.blockTrials,shape,Qv0jhW3sqicqQvd7LfReAsI7nD73,1084081.7000000179,wcst,0.0,shape,"{'trialIndexInBlock': 61, 'chosenCard': 'one_yellow_circle', 'cardShape': 'circle', 'isPE': False, 'cardNumber': 2, 'cardColor': 'red', 'targetCardPath': 'assets/images/2redcircle.svg', 'isPR': False, 'isNPE': False, 'stageName': 'WcstStage.blockTrials', 'ruleAtThatTime': 'shape'}",False,False,False,1085219.900000006,1138.199999988079,False,61.0
Qv0jhW3sqicqQvd7LfReAsI7nD73,62,,two_black_rectangle,62,964.9000000059605,rectangle,2025-09-02T15:19:21.602,4,True,black,assets/images/4blackrectangle.svg,WcstStage.blockTrials,shape,Qv0jhW3sqicqQvd7LfReAsI7nD73,1086238.900000006,wcst,0.0,shape,"{'trialIndexInBlock': 62, 'chosenCard': 'two_black_rectangle', 'cardShape': 'rectangle', 'isPE': False, 'cardNumber': 4, 'cardColor': 'black', 'targetCardPath': 'assets/images/4blackrectangle.svg', 'isPR': True, 'isNPE': False, 'stageName': 'WcstStage.blockTrials', 'ruleAtThatTime': 'shape'}",False,False,False,1087203.800000012,964.9000000059605,True,62.0
Qv0jhW3sqicqQvd7LfReAsI7nD73,63,,two_black_rectangle,63,935.8000000119209,rectangle,2025-09-02T15:19:23.556,4,True,yellow,assets/images/4yellowrectangle.svg,WcstStage.blockTrials,shape,Qv0jhW3sqicqQvd7LfReAsI7nD73,1088221.900000006,wcst,0.0,shape,"{'trialIndexInBlock': 63, 'chosenCard': 'two_black_rectangle', 'cardShape': 'rectangle', 'isPE': False, 'cardNumber': 4, 'cardColor': 'yellow', 'targetCardPath': 'assets/images/4yellowrectangle.svg', 'isPR': False, 'isNPE': False, 'stageName': 'WcstStage.blockTrials', 'ruleAtThatTime': 'shape'}",False,False,False,1089157.7000000179,935.8000000119209,False,63.0
Qv0jhW3sqicqQvd7LfReAsI7nD73,64,,one_yellow_circle,0,1121.0,circle,2025-09-02T15:19:25.688,1,True,red,assets/images/1redcircle.svg,WcstStage.blockTrials,shape,Qv0jhW3sqicqQvd7LfReAsI7nD73,1090168.900000006,wcst,1.0,shape,"{'trialIndexInBlock': 0, 'chosenCard': 'one_yellow_circle', 'cardShape': 'circle', 'isPE': False, 'cardNumber': 1, 'cardColor': 'red', 'targetCardPath': 'assets/images/1redcircle.svg', 'isPR': False, 'isNPE': False, 'stageName': 'WcstStage.blockTrials', 'ruleAtThatTime': 'shape'}",False,False,False,1091289.900000006,1121.0,False,64.0
Qv0jhW3sqicqQvd7LfReAsI7nD73,65,,two_black_rectangle,1,1234.4000000059605,rectangle,2025-09-02T15:19:27.954,3,True,red,assets/images/3redrectangle.svg,WcstStage.blockTrials,shape,Qv0jhW3sqicqQvd7LfReAsI7nD73,1092321.5,wcst,1.0,shape,"{'trialIndexInBlock': 1, 'chosenCard': 'two_black_rectangle', 'cardShape': 'rectangle', 'isPE': False, 'cardNumber': 3, 'cardColor': 'red', 'targetCardPath': 'assets/images/3redrectangle.svg', 'isPR': False, 'isNPE': False, 'stageName': 'WcstStage.blockTrials', 'ruleAtThatTime': 'shape'}",False,False,False,1093555.900000006,1234.4000000059605,False,65.0
Qv0jhW3sqicqQvd7LfReAsI7nD73,66,,three_blue_star,2,1310.0999999940395,star,2025-09-02T15:19:30.284,2,False,blue,assets/images/2bluestar.svg,WcstStage.blockTrials,number,Qv0jhW3sqicqQvd7LfReAsI7nD73,1094575.800000012,wcst,1.0,number,"{'trialIndexInBlock': 2, 'chosenCard': 'three_blue_star', 'cardShape': 'star', 'isPE': True, 'cardNumber': 2, 'cardColor': 'blue', 'targetCardPath': 'assets/images/2bluestar.svg', 'isPR': True, 'isNPE': False, 'stageName': 'WcstStage.blockTrials', 'ruleAtThatTime': 'number'}",False,False,True,1095885.900000006,1310.0999999940395,True,66.0
Qv0jhW3sqicqQvd7LfReAsI7nD73,67,,four_red_triangle,3,2275.899999976158,star,2025-09-02T15:19:33.586,4,True,red,assets/images/4redstar.svg,WcstStage.blockTrials,number,Qv0jhW3sqicqQvd7LfReAsI7nD73,1096911.7000000179,wcst,1.0,number,"{'trialIndexInBlock': 3, 'chosenCard': 'four_red_triangle', 'cardShape': 'star', 'isPE': False, 'cardNumber': 4, 'cardColor': 'red', 'targetCardPath': 'assets/images/4redstar.svg', 'isPR': False, 'isNPE': False, 'stageName': 'WcstStage.blockTrials', 'ruleAtThatTime': 'number'}",False,False,False,1099187.599999994,2275.899999976158,False,67.0
Qv0jhW3sqicqQvd7LfReAsI7nD73,68,,three_blue_star,4,844.1999999880791,triangle,2025-09-02T15:19:35.450,3,True,yellow,assets/images/3yellowtriangle.svg,WcstStage.blockTrials,number,Qv0jhW3sqicqQvd7LfReAsI7nD73,1100208.300000012,wcst,1.0,number,"{'trialIndexInBlock': 4, 'chosenCard': 'three_blue_star', 'cardShape': 'triangle', 'isPE': False, 'cardNumber': 3, 'cardColor': 'yellow', 'targetCardPath': 'assets/images/3yellowtriangle.svg', 'isPR': False, 'isNPE': False, 'stageName': 'WcstStage.blockTrials', 'ruleAtThatTime': 'number'}",False,False,False,1101052.5,844.1999999880791,False,68.0
Qv0jhW3sqicqQvd7LfReAsI7nD73,69,,four_red_triangle,5,906.4000000059605,circle,2025-09-02T15:19:37.380,4,True,black,assets/images/4blackcircle.svg,WcstStage.blockTrials,number,Qv0jhW3sqicqQvd7LfReAsI7nD73,1102075.599999994,wcst,1.0,number,"{'trialIndexInBlock': 5, 'chosenCard': 'four_red_triangle', 'cardShape': 'circle', 'isPE': False, 'cardNumber': 4, 'cardColor': 'black', 'targetCardPath': 'assets/images/4blackcircle.svg', 'isPR': False, 'isNPE': False, 'stageName': 'WcstStage.blockTrials', 'ruleAtThatTime': 'number'}",False,False,False,1102982.0,906.4000000059605,False,69.0
Qv0jhW3sqicqQvd7LfReAsI7nD73,70,,one_yellow_circle,6,764.6999999880791,triangle,2025-09-02T15:19:39.158,1,True,yellow,assets/images/1yellowtriangle.svg,WcstStage.blockTrials,number,Qv0jhW3sqicqQvd7LfReAsI7nD73,1103995.2000000179,wcst,1.0,number,"{'trialIndexInBlock': 6, 'chosenCard': 'one_yellow_circle', 'cardShape': 'triangle', 'isPE': False, 'cardNumber': 1, 'cardColor': 'yellow', 'targetCardPath': 'assets/images/1yellowtriangle.svg', 'isPR': False, 'isNPE': False, 'stageName': 'WcstStage.blockTrials', 'ruleAtThatTime': 'number'}",False,False,False,1104759.900000006,764.6999999880791,False,70.0
Qv0jhW3sqicqQvd7LfReAsI7nD73,71,,four_red_triangle,7,694.6999999880791,rectangle,2025-09-02T15:19:40.869,4,True,red,assets/images/4redrectangle.svg,WcstStage.blockTrials,number,Qv0jhW3sqicqQvd7LfReAsI7nD73,1105776.900000006,wcst,1.0,number,"{'trialIndexInBlock': 7, 'chosenCard': 'four_red_triangle', 'cardShape': 'rectangle', 'isPE': False, 'cardNumber': 4, 'cardColor': 'red', 'targetCardPath': 'assets/images/4redrectangle.svg', 'isPR': False, 'isNPE': False, 'stageName': 'WcstStage.blockTrials', 'ruleAtThatTime': 'number'}",False,False,False,1106471.599999994,694.6999999880791,False,71.0
Qv0jhW3sqicqQvd7LfReAsI7nD73,72,,one_yellow_circle,8,919.9000000059605,triangle,2025-09-02T15:19:42.812,1,True,black,assets/images/1blacktriangle.svg,WcstStage.blockTrials,number,Qv0jhW3sqicqQvd7LfReAsI7nD73,1107494.0,wcst,1.0,number,"{'trialIndexInBlock': 8, 'chosenCard': 'one_yellow_circle', 'cardShape': 'triangle', 'isPE': False, 'cardNumber': 1, 'cardColor': 'black', 'targetCardPath': 'assets/images/1blacktriangle.svg', 'isPR': False, 'isNPE': False, 'stageName': 'WcstStage.blockTrials', 'ruleAtThatTime': 'number'}",False,False,False,1108413.900000006,919.9000000059605,False,72.0
Qv0jhW3sqicqQvd7LfReAsI7nD73,73,,two_black_rectangle,9,797.1000000238419,rectangle,2025-09-02T15:19:44.634,2,True,blue,assets/images/2bluerectangle.svg,WcstStage.blockTrials,number,Qv0jhW3sqicqQvd7LfReAsI7nD73,1109438.599999994,wcst,1.0,number,"{'trialIndexInBlock': 9, 'chosenCard': 'two_black_rectangle', 'cardShape': 'rectangle', 'isPE': False, 'cardNumber': 2, 'cardColor': 'blue', 'targetCardPath': 'assets/images/2bluerectangle.svg', 'isPR': True, 'isNPE': False, 'stageName': 'WcstStage.blockTrials', 'ruleAtThatTime': 'number'}",False,False,False,1110235.7000000179,797.1000000238419,True,73.0
Qv0jhW3sqicqQvd7LfReAsI7nD73,74,,two_black_rectangle,10,573.6999999880791,triangle,2025-09-02T15:19:46.244,2,True,blue,assets/images/2bluetriangle.svg,WcstStage.blockTrials,number,Qv0jhW3sqicqQvd7LfReAsI7nD73,1111272.300000012,wcst,1.0,number,"{'trialIndexInBlock': 10, 'chosenCard': 'two_black_rectangle', 'cardShape': 'triangle', 'isPE': False, 'cardNumber': 2, 'cardColor': 'blue', 'targetCardPath': 'assets/images/2bluetriangle.svg', 'isPR': False, 'isNPE': False, 'stageName': 'WcstStage.blockTrials', 'ruleAtThatTime': 'number'}",False,False,False,1111846.0,573.6999999880791,False,74.0
Qv0jhW3sqicqQvd7LfReAsI7nD73,75,,one_yellow_circle,11,690.4000000059605,circle,2025-09-02T15:19:47.956,1,True,blue,assets/images/1bluecircle.svg,WcstStage.blockTrials,number,Qv0jhW3sqicqQvd7LfReAsI7nD73,1112867.400000006,wcst,1.0,number,"{'trialIndexInBlock': 11, 'chosenCard': 'one_yellow_circle', 'cardShape': 'circle', 'isPE': False, 'cardNumber': 1, 'cardColor': 'blue', 'targetCardPath': 'assets/images/1bluecircle.svg', 'isPR': True, 'isNPE': False, 'stageName': 'WcstStage.blockTrials', 'ruleAtThatTime': 'number'}",False,False,False,1113557.800000012,690.4000000059605,True,75.0
Qv0jhW3sqicqQvd7LfReAsI7nD73,76,,two_black_rectangle,12,575.3000000119209,circle,2025-09-02T15:19:49.556,2,True,yellow,assets/images/2yellowcircle.svg,WcstStage.blockTrials,number,Qv0jhW3sqicqQvd7LfReAsI7nD73,1114582.599999994,wcst,1.0,number,"{'trialIndexInBlock': 12, 'chosenCard': 'two_black_rectangle', 'cardShape': 'circle', 'isPE': False, 'cardNumber': 2, 'cardColor': 'yellow', 'targetCardPath': 'assets/images/2yellowcircle.svg', 'isPR': False, 'isNPE': False, 'stageName': 'WcstStage.blockTrials', 'ruleAtThatTime': 'number'}",False,False,False,1115157.900000006,575.3000000119209,False,76.0
ORvIk1xRWIQmKuLVe6GXNouvAXx2,0,,three_blue_star,0,4060.3000000715256,rectangle,2025-09-03T16:41:38.125,2,True,blue,assets/images/2bluerectangle.svg,WcstStage.blockTrials,colour,ORvIk1xRWIQmKuLVe6GXNouvAXx2,1328035.0,wcst,0.0,colour,"{'trialIndexInBlock': 0, 'chosenCard': 'three_blue_star', 'cardShape': 'rectangle', 'isPE': False, 'cardNumber': 2, 'cardColor': 'blue', 'targetCardPath': 'assets/images/2bluerectangle.svg', 'isPR': False, 'isNPE': False, 'stageName': 'WcstStage.blockTrials', 'ruleAtThatTime': 'colour'}",False,False,False,1332095.3000000715,4060.3000000715256,False,0.0
ORvIk1xRWIQmKuLVe6GXNouvAXx2,1,,two_black_rectangle,1,1476.3999999761581,rectangle,2025-09-03T16:41:40.630,1,True,black,assets/images/1blackrectangle.svg,WcstStage.blockTrials,colour,ORvIk1xRWIQmKuLVe6GXNouvAXx2,1333123.9000000954,wcst,0.0,colour,"{'trialIndexInBlock': 1, 'chosenCard': 'two_black_rectangle', 'cardShape': 'rectangle', 'isPE': False, 'cardNumber': 1, 'cardColor': 'black', 'targetCardPath': 'assets/images/1blackrectangle.svg', 'isPR': False, 'isNPE': False, 'stageName': 'WcstStage.blockTrials', 'ruleAtThatTime': 'colour'}",False,False,False,1334600.3000000715,1476.3999999761581,False,1.0
