participantId,correct,trial,rt,letterColor,type,text,userColor,participant_id,stim_onset_ms,task,block_index,timeout,cond,extra,is_timeout,rt_ms,resp_time_ms,trial_index
7QYZfcjgZHcVB941oHiLGGPTk7U2,True,0,949.0999999046326,blue,incongruent,빨강,blue,,,,,,,,,,,
7QYZfcjgZHcVB941oHiLGGPTk7U2,True,1,908.3999999761581,blue,congruent,파랑,blue,,,,,,,,,,,
7QYZfcjgZHcVB941oHiLGGPTk7U2,True,2,1108.7999999523163,green,congruent,초록,green,,,,,,,,,,,
7QYZfcjgZHcVB941oHiLGGPTk7U2,True,3,959.1000000238419,yellow,incongruent,파랑,yellow,,,,,,,,,,,
7QYZfcjgZHcVB941oHiLGGPTk7U2,True,4,1245.8999999761581,red,incongruent,파랑,red,,,,,,,,,,,
7QYZfcjgZHcVB941oHiLGGPTk7U2,True,5,849.6000000238419,red,neutral,기차,red,,,,,,,,,,,
7QYZfcjgZHcVB941oHiLGGPTk7U2,True,6,1100.0,green,neutral,기차,green,,,,,,,,,,,
7QYZfcjgZHcVB941oHiLGGPTk7U2,True,7,1728.3000000715256,green,incongruent,노랑,green,,,,,,,,,,,
7QYZfcjgZHcVB941oHiLGGPTk7U2,True,8,1272.0,blue,neutral,기차,blue,,,,,,,,,,,
7QYZfcjgZHcVB941oHiLGGPTk7U2,True,9,804.2000000476837,blue,congruent,파랑,blue,,,,,,,,,,,
7QYZfcjgZHcVB941oHiLGGPTk7U2,True,10,681.0,blue,neutral,기차,blue,,,,,,,,,,,
7QYZfcjgZHcVB941oHiLGGPTk7U2,True,11,777.6000000238419,blue,incongruent,노랑,blue,,,,,,,,,,,
7QYZfcjgZHcVB941oHiLGGPTk7U2,True,12,589.2000000476837,blue,neutral,가방,blue,,,,,,,,,,,
7QYZfcjgZHcVB941oHiLGGPTk7U2,True,13,866.5,green,incongruent,노랑,green,,,,,,,,,,,
7QYZfcjgZHcVB941oHiLGGPTk7U2,True,14,1040.8999999761581,yellow,incongruent,파랑,yellow,,,,,,,,,,,
7QYZfcjgZHcVB941oHiLGGPTk7U2,True,15,996.1999999284744,blue,neutral,기차,blue,,,,,,,,,,,
7QYZfcjgZHcVB941oHiLGGPTk7U2,True,16,557.6999999284744,blue,neutral,가방,blue,,,,,,,,,,,
7QYZfcjgZHcVB941oHiLGGPTk7U2,True,17,915.2000000476837,red,neutral,기차,red,,,,,,,,,,,
7QYZfcjgZHcVB941oHiLGGPTk7U2,True,18,924.8999999761581,green,congruent,초록,green,,,,,,,,,,,
7QYZfcjgZHcVB941oHiLGGPTk7U2,True,19,2030.7000000476837,blue,incongruent,노랑,blue,,,,,,,,,,,
7QYZfcjgZHcVB941oHiLGGPTk7U2,True,20,982.1000000238419,yellow,congruent,노랑,yellow,,,,,,,,,,,
7QYZfcjgZHcVB941oHiLGGPTk7U2,True,21,977.7999999523163,green,neutral,가방,green,,,,,,,,,,,
7QYZfcjgZHcVB941oHiLGGPTk7U2,True,22,1183.8000000715256,blue,neutral,학교,blue,,,,,,,,,,,
7QYZfcjgZHcVB941oHiLGGPTk7U2,True,23,799.2999999523163,red,congruent,빨강,red,,,,,,,,,,,
7QYZfcjgZHcVB941oHiLGGPTk7U2,True,24,928.2999999523163,yellow,incongruent,초록,yellow,,,,,,,,,,,
7QYZfcjgZHcVB941oHiLGGPTk7U2,True,25,745.1999999284744,red,congruent,빨강,red,,,,,,,,,,,
7QYZfcjgZHcVB941oHiLGGPTk7U2,True,26,847.0,red,incongruent,노랑,red,,,,,,,,,,,
7QYZfcjgZHcVB941oHiLGGPTk7U2,True,27,570.3999999761581,red,neutral,기차,red,,,,,,,,,,,
7QYZfcjgZHcVB941oHiLGGPTk7U2,True,28,756.7999999523163,blue,congruent,파랑,blue,,,,,,,,,,,
7QYZfcjgZHcVB941oHiLGGPTk7U2,True,29,869.3999999761581,yellow,congruent,노랑,yellow,,,,,,,,,,,
7QYZfcjgZHcVB941oHiLGGPTk7U2,True,30,757.1000000238419,yellow,neutral,기차,yellow,,,,,,,,,,,
7QYZfcjgZHcVB941oHiLGGPTk7U2,True,31,949.8999999761581,blue,congruent,파랑,blue,,,,,,,,,,,
7QYZfcjgZHcVB941oHiLGGPTk7U2,True,32,738.6000000238419,red,neutral,학교,red,,,,,,,,,,,
7QYZfcjgZHcVB941oHiLGGPTk7U2,True,33,994.1000000238419,green,incongruent,노랑,green,,,,,,,,,,,
7QYZfcjgZHcVB941oHiLGGPTk7U2,True,34,597.7000000476837,green,incongruent,빨강,green,,,,,,,,,,,
7QYZfcjgZHcVB941oHiLGGPTk7U2,True,35,1068.6000000238419,yellow,incongruent,파랑,yellow,,,,,,,,,,,
7QYZfcjgZHcVB941oHiLGGPTk7U2,True,36,912.0,green,neutral,기차,green,,,,,,,,,,,
7QYZfcjgZHcVB941oHiLGGPTk7U2,True,37,538.6000000238419,green,congruent,초록,green,,,,,,,,,,,
7QYZfcjgZHcVB941oHiLGGPTk7U2,True,38,579.6000000238419,green,neutral,학교,green,,,,,,,,,,,
7QYZfcjgZHcVB941oHiLGGPTk7U2,True,39,986.5999999046326,yellow,neutral,가방,yellow,,,,,,,,,,,
7QYZfcjgZHcVB941oHiLGGPTk7U2,True,40,449.10000002384186,yellow,neutral,학교,yellow,,,,,,,,,,,
7QYZfcjgZHcVB941oHiLGGPTk7U2,True,41,517.5,yellow,congruent,노랑,yellow,,,,,,,,,,,
7QYZfcjgZHcVB941oHiLGGPTk7U2,True,42,808.7999999523163,green,congruent,초록,green,,,,,,,,,,,
7QYZfcjgZHcVB941oHiLGGPTk7U2,True,43,737.3999999761581,red,congruent,빨강,red,,,,,,,,,,,
7QYZfcjgZHcVB941oHiLGGPTk7U2,True,44,860.2000000476837,blue,incongruent,초록,blue,,,,,,,,,,,
7QYZfcjgZHcVB941oHiLGGPTk7U2,True,45,699.0,red,congruent,빨강,red,,,,,,,,,,,
7QYZfcjgZHcVB941oHiLGGPTk7U2,True,46,856.6999999284744,yellow,congruent,노랑,yellow,,,,,,,,,,,
7QYZfcjgZHcVB941oHiLGGPTk7U2,True,47,943.0,green,incongruent,파랑,green,,,,,,,,,,,
7QYZfcjgZHcVB941oHiLGGPTk7U2,True,48,2216.1999999284744,yellow,incongruent,빨강,yellow,,,,,,,,,,,
7QYZfcjgZHcVB941oHiLGGPTk7U2,True,49,771.0,red,congruent,빨강,red,,,,,,,,,,,
7QYZfcjgZHcVB941oHiLGGPTk7U2,True,50,1224.3999999761581,green,neutral,기차,green,,,,,,,,,,,
7QYZfcjgZHcVB941oHiLGGPTk7U2,True,51,999.5,blue,incongruent,빨강,blue,,,,,,,,,,,
7QYZfcjgZHcVB941oHiLGGPTk7U2,True,52,937.7000000476837,yellow,congruent,노랑,yellow,,,,,,,,,,,
7QYZfcjgZHcVB941oHiLGGPTk7U2,True,53,829.0,green,neutral,학교,green,,,,,,,,,,,
7QYZfcjgZHcVB941oHiLGGPTk7U2,True,54,845.3000000715256,blue,incongruent,빨강,blue,,,,,,,,,,,
7QYZfcjgZHcVB941oHiLGGPTk7U2,True,55,797.7999999523163,yellow,neutral,가방,yellow,,,,,,,,,,,
7QYZfcjgZHcVB941oHiLGGPTk7U2,True,56,875.6000000238419,red,congruent,빨강,red,,,,,,,,,,,
7QYZfcjgZHcVB941oHiLGGPTk7U2,True,57,706.8000000715256,green,neutral,학교,green,,,,,,,,,,,
7QYZfcjgZHcVB941oHiLGGPTk7U2,True,58,791.1000000238419,yellow,neutral,기차,yellow,,,,,,,,,,,
7QYZfcjgZHcVB941oHiLGGPTk7U2,True,59,900.5,yellow,neutral,학교,yellow,,,,,,,,,,,
7QYZfcjgZHcVB941oHiLGGPTk7U2,True,60,486.2000000476837,yellow,congruent,노랑,yellow,,,,,,,,,,,
7QYZfcjgZHcVB941oHiLGGPTk7U2,True,61,845.1000000238419,green,congruent,초록,green,,,,,,,,,,,
7QYZfcjgZHcVB941oHiLGGPTk7U2,True,62,1338.3000000715256,red,incongruent,파랑,red,,,,,,,,,,,
7QYZfcjgZHcVB941oHiLGGPTk7U2,True,63,920.0,yellow,congruent,노랑,yellow,,,,,,,,,,,
7QYZfcjgZHcVB941oHiLGGPTk7U2,True,64,1193.5,red,incongruent,노랑,red,,,,,,,,,,,
7QYZfcjgZHcVB941oHiLGGPTk7U2,True,65,922.1000000238419,green,incongruent,파랑,green,,,,,,,,,,,
7QYZfcjgZHcVB941oHiLGGPTk7U2,True,66,765.5,yellow,neutral,학교,yellow,,,,,,,,,,,
7QYZfcjgZHcVB941oHiLGGPTk7U2,True,67,1013.2999999523163,green,congruent,초록,green,,,,,,,,,,,
7QYZfcjgZHcVB941oHiLGGPTk7U2,True,68,1590.2000000476837,blue,incongruent,노랑,blue,,,,,,,,,,,
7QYZfcjgZHcVB941oHiLGGPTk7U2,True,69,567.6999999284744,blue,neutral,학교,blue,,,,,,,,,,,
7QYZfcjgZHcVB941oHiLGGPTk7U2,True,70,790.1000000238419,red,neutral,가방,red,,,,,,,,,,,
7QYZfcjgZHcVB941oHiLGGPTk7U2,True,71,1636.6000000238419,red,incongruent,초록,red,,,,,,,,,,,
7QYZfcjgZHcVB941oHiLGGPTk7U2,True,72,781.8999999761581,yellow,congruent,노랑,yellow,,,,,,,,,,,
7QYZfcjgZHcVB941oHiLGGPTk7U2,True,73,1366.9000000953674,blue,congruent,파랑,blue,,,,,,,,,,,
7QYZfcjgZHcVB941oHiLGGPTk7U2,True,74,1423.5,blue,incongruent,초록,blue,,,,,,,,,,,
7QYZfcjgZHcVB941oHiLGGPTk7U2,True,75,733.8000000715256,green,incongruent,파랑,green,,,,,,,,,,,
7QYZfcjgZHcVB941oHiLGGPTk7U2,True,76,532.5,green,incongruent,빨강,green,,,,,,,,,,,
7QYZfcjgZHcVB941oHiLGGPTk7U2,True,77,412.6999999284744,green,congruent,초록,green,,,,,,,,,,,
7QYZfcjgZHcVB941oHiLGGPTk7U2,True,78,888.5,blue,congruent,파랑,blue,,,,,,,,,,,
7QYZfcjgZHcVB941oHiLGGPTk7U2,True,79,847.7000000476837,red,congruent,빨강,red,,,,,,,,,,,
7QYZfcjgZHcVB941oHiLGGPTk7U2,True,80,614.3999999761581,red,neutral,학교,red,,,,,,,,,,,
7QYZfcjgZHcVB941oHiLGGPTk7U2,True,81,377.39999997615814,red,incongruent,파랑,red,,,,,,,,,,,
7QYZfcjgZHcVB941oHiLGGPTk7U2,True,82,899.3999999761581,yellow,incongruent,초록,yellow,,,,,,,,,,,
7QYZfcjgZHcVB941oHiLGGPTk7U2,True,83,823.5,red,neutral,가방,red,,,,,,,,,,,
7QYZfcjgZHcVB941oHiLGGPTk7U2,True,84,659.6000000238419,yellow,neutral,기차,yellow,,,,,,,,,,,
7QYZfcjgZHcVB941oHiLGGPTk7U2,True,85,923.1999999284744,red,neutral,학교,red,,,,,,,,,,,
7QYZfcjgZHcVB941oHiLGGPTk7U2,True,86,718.7999999523163,green,congruent,초록,green,,,,,,,,,,,
7QYZfcjgZHcVB941oHiLGGPTk7U2,True,87,845.2999999523163,yellow,incongruent,초록,yellow,,,,,,,,,,,
7QYZfcjgZHcVB941oHiLGGPTk7U2,True,88,1075.5,yellow,incongruent,빨강,yellow,,,,,,,,,,,
7QYZfcjgZHcVB941oHiLGGPTk7U2,True,89,722.6999999284744,red,incongruent,초록,red,,,,,,,,,,,
7QYZfcjgZHcVB941oHiLGGPTk7U2,True,90,738.3999999761581,blue,congruent,파랑,blue,,,,,,,,,,,
7QYZfcjgZHcVB941oHiLGGPTk7U2,True,91,687.8000000715256,blue,neutral,학교,blue,,,,,,,,,,,
7QYZfcjgZHcVB941oHiLGGPTk7U2,True,92,479.6999999284744,blue,congruent,파랑,blue,,,,,,,,,,,
7QYZfcjgZHcVB941oHiLGGPTk7U2,True,93,755.7999999523163,red,congruent,빨강,red,,,,,,,,,,,
7QYZfcjgZHcVB941oHiLGGPTk7U2,True,94,776.3000000715256,blue,congruent,파랑,blue,,,,,,,,,,,
7QYZfcjgZHcVB941oHiLGGPTk7U2,True,95,670.1999999284744,red,incongruent,초록,red,,,,,,,,,,,
7QYZfcjgZHcVB941oHiLGGPTk7U2,True,96,768.6000000238419,yellow,congruent,노랑,yellow,,,,,,,,,,,
7QYZfcjgZHcVB941oHiLGGPTk7U2,True,97,1175.0,red,congruent,빨강,red,,,,,,,,,,,
7QYZfcjgZHcVB941oHiLGGPTk7U2,True,98,760.1999999284744,green,neutral,가방,green,,,,,,,,,,,
7QYZfcjgZHcVB941oHiLGGPTk7U2,True,99,686.8999999761581,red,neutral,가방,red,,,,,,,,,,,
7QYZfcjgZHcVB941oHiLGGPTk7U2,True,100,1234.0,red,incongruent,노랑,red,,,,,,,,,,,
7QYZfcjgZHcVB941oHiLGGPTk7U2,True,101,990.2000000476837,green,congruent,초록,green,,,,,,,,,,,
7QYZfcjgZHcVB941oHiLGGPTk7U2,True,102,932.8999999761581,yellow,neutral,가방,yellow,,,,,,,,,,,
7QYZfcjgZHcVB941oHiLGGPTk7U2,True,103,903.9000000953674,green,incongruent,빨강,green,,,,,,,,,,,
7QYZfcjgZHcVB941oHiLGGPTk7U2,True,104,872.1999999284744,yellow,incongruent,빨강,yellow,,,,,,,,,,,
7QYZfcjgZHcVB941oHiLGGPTk7U2,True,105,957.8000000715256,blue,incongruent,초록,blue,,,,,,,,,,,
7QYZfcjgZHcVB941oHiLGGPTk7U2,True,106,847.3999999761581,green,neutral,가방,green,,,,,,,,,,,
7QYZfcjgZHcVB941oHiLGGPTk7U2,False,107,1060.7000000476837,blue,neutral,가방,yellow,,,,,,,,,,,
CJINye92gDQlrSU7mv9XjlJBXo62,True,0,1053.0,yellow,neutral,기차,yellow,,,,,,,,,,,
CJINye92gDQlrSU7mv9XjlJBXo62,True,1,843.0,yellow,incongruent,파랑,yellow,,,,,,,,,,,
CJINye92gDQlrSU7mv9XjlJBXo62,True,2,754.0,red,incongruent,파랑,red,,,,,,,,,,,
CJINye92gDQlrSU7mv9XjlJBXo62,True,3,851.0,green,congruent,초록,green,,,,,,,,,,,
CJINye92gDQlrSU7mv9XjlJBXo62,True,4,731.0,blue,congruent,파랑,blue,,,,,,,,,,,
CJINye92gDQlrSU7mv9XjlJBXo62,True,5,708.0,red,neutral,가방,red,,,,,,,,,,,
CJINye92gDQlrSU7mv9XjlJBXo62,True,6,1255.0,green,incongruent,파랑,green,,,,,,,,,,,
CJINye92gDQlrSU7mv9XjlJBXo62,True,7,721.0,blue,neutral,학교,blue,,,,,,,,,,,
CJINye92gDQlrSU7mv9XjlJBXo62,True,8,687.9999999999418,yellow,congruent,노랑,yellow,,,,,,,,,,,
CJINye92gDQlrSU7mv9XjlJBXo62,True,9,723.0,green,incongruent,파랑,green,,,,,,,,,,,
CJINye92gDQlrSU7mv9XjlJBXo62,True,10,772.0,yellow,congruent,노랑,yellow,,,,,,,,,,,
CJINye92gDQlrSU7mv9XjlJBXo62,True,11,564.0,green,incongruent,노랑,green,,,,,,,,,,,
CJINye92gDQlrSU7mv9XjlJBXo62,False,12,659.0,yellow,neutral,기차,green,,,,,,,,,,,
CJINye92gDQlrSU7mv9XjlJBXo62,True,13,682.0,green,neutral,기차,green,,,,,,,,,,,
CJINye92gDQlrSU7mv9XjlJBXo62,True,14,656.0,yellow,neutral,가방,yellow,,,,,,,,,,,
CJINye92gDQlrSU7mv9XjlJBXo62,True,15,648.0,red,incongruent,초록,red,,,,,,,,,,,
CJINye92gDQlrSU7mv9XjlJBXo62,True,16,598.0,red,congruent,빨강,red,,,,,,,,,,,
CJINye92gDQlrSU7mv9XjlJBXo62,True,17,681.9999999999418,green,congruent,초록,green,,,,,,,,,,,
CJINye92gDQlrSU7mv9XjlJBXo62,True,18,644.0,blue,incongruent,노랑,blue,,,,,,,,,,,
CJINye92gDQlrSU7mv9XjlJBXo62,True,19,607.0,yellow,congruent,노랑,yellow,,,,,,,,,,,
CJINye92gDQlrSU7mv9XjlJBXo62,True,20,621.0,green,incongruent,파랑,green,,,,,,,,,,,
CJINye92gDQlrSU7mv9XjlJBXo62,True,21,666.0,blue,neutral,기차,blue,,,,,,,,,,,
CJINye92gDQlrSU7mv9XjlJBXo62,True,22,806.0,red,incongruent,파랑,red,,,,,,,,,,,
CJINye92gDQlrSU7mv9XjlJBXo62,True,23,610.0,yellow,congruent,노랑,yellow,,,,,,,,,,,
CJINye92gDQlrSU7mv9XjlJBXo62,True,24,559.0,green,congruent,초록,green,,,,,,,,,,,
CJINye92gDQlrSU7mv9XjlJBXo62,False,25,597.0,yellow,incongruent,빨강,red,,,,,,,,,,,
CJINye92gDQlrSU7mv9XjlJBXo62,True,26,1399.9999999999418,red,neutral,가방,red,,,,,,,,,,,
CJINye92gDQlrSU7mv9XjlJBXo62,True,27,624.0,red,congruent,빨강,red,,,,,,,,,,,
CJINye92gDQlrSU7mv9XjlJBXo62,True,28,865.0,yellow,incongruent,파랑,yellow,,,,,,,,,,,
CJINye92gDQlrSU7mv9XjlJBXo62,True,29,578.0,yellow,congruent,노랑,yellow,,,,,,,,,,,
CJINye92gDQlrSU7mv9XjlJBXo62,True,30,531.0,red,neutral,학교,red,,,,,,,,,,,
CJINye92gDQlrSU7mv9XjlJBXo62,True,31,973.0,yellow,incongruent,초록,yellow,,,,,,,,,,,
CJINye92gDQlrSU7mv9XjlJBXo62,True,32,1886.0,green,neutral,학교,green,,,,,,,,,,,
CJINye92gDQlrSU7mv9XjlJBXo62,True,33,921.0,red,neutral,기차,red,,,,,,,,,,,
CJINye92gDQlrSU7mv9XjlJBXo62,True,34,806.0,green,congruent,초록,green,,,,,,,,,,,
CJINye92gDQlrSU7mv9XjlJBXo62,True,35,639.0,blue,congruent,파랑,blue,,,,,,,,,,,
CJINye92gDQlrSU7mv9XjlJBXo62,True,36,909.9999999999418,green,neutral,학교,green,,,,,,,,,,,
CJINye92gDQlrSU7mv9XjlJBXo62,True,37,670.0,yellow,congruent,노랑,yellow,,,,,,,,,,,
CJINye92gDQlrSU7mv9XjlJBXo62,True,38,938.0,red,congruent,빨강,red,,,,,,,,,,,
CJINye92gDQlrSU7mv9XjlJBXo62,True,39,756.0,green,congruent,초록,green,,,,,,,,,,,
CJINye92gDQlrSU7mv9XjlJBXo62,True,40,573.9999999999418,green,neutral,가방,green,,,,,,,,,,,
CJINye92gDQlrSU7mv9XjlJBXo62,True,41,590.9999999999418,blue,congruent,파랑,blue,,,,,,,,,,,
CJINye92gDQlrSU7mv9XjlJBXo62,True,42,608.0,blue,incongruent,노랑,blue,,,,,,,,,,,
CJINye92gDQlrSU7mv9XjlJBXo62,True,43,621.9999999999418,red,neutral,학교,red,,,,,,,,,,,
CJINye92gDQlrSU7mv9XjlJBXo62,True,44,576.0,red,incongruent,파랑,red,,,,,,,,,,,
CJINye92gDQlrSU7mv9XjlJBXo62,True,45,913.0,yellow,neutral,학교,yellow,,,,,,,,,,,
CJINye92gDQlrSU7mv9XjlJBXo62,True,46,656.0,yellow,neutral,가방,yellow,,,,,,,,,,,
CJINye92gDQlrSU7mv9XjlJBXo62,True,47,674.0,yellow,neutral,학교,yellow,,,,,,,,,,,
CJINye92gDQlrSU7mv9XjlJBXo62,True,48,424.9999999999418,yellow,congruent,노랑,yellow,,,,,,,,,,,
CJINye92gDQlrSU7mv9XjlJBXo62,True,49,634.0,red,congruent,빨강,red,,,,,,,,,,,
CJINye92gDQlrSU7mv9XjlJBXo62,True,50,788.0,green,congruent,초록,green,,,,,,,,,,,
CJINye92gDQlrSU7mv9XjlJBXo62,True,51,701.9999999999418,yellow,incongruent,빨강,yellow,,,,,,,,,,,
CJINye92gDQlrSU7mv9XjlJBXo62,True,52,487.0,green,neutral,기차,green,,,,,,,,,,,
CJINye92gDQlrSU7mv9XjlJBXo62,True,53,903.0,blue,congruent,파랑,blue,,,,,,,,,,,
CJINye92gDQlrSU7mv9XjlJBXo62,False,54,842.0,green,incongruent,빨강,red,,,,,,,,,,,
CJINye92gDQlrSU7mv9XjlJBXo62,False,55,1167.0,blue,neutral,기차,yellow,,,,,,,,,,,
CJINye92gDQlrSU7mv9XjlJBXo62,True,56,1193.0,green,congruent,초록,green,,,,,,,,,,,
CJINye92gDQlrSU7mv9XjlJBXo62,True,57,826.0,blue,neutral,학교,blue,,,,,,,,,,,
CJINye92gDQlrSU7mv9XjlJBXo62,True,58,1076.0,blue,incongruent,빨강,blue,,,,,,,,,,,
CJINye92gDQlrSU7mv9XjlJBXo62,True,59,1513.0,yellow,incongruent,파랑,yellow,,,,,,,,,,,
CJINye92gDQlrSU7mv9XjlJBXo62,True,60,1169.0,green,incongruent,빨강,green,,,,,,,,,,,
CJINye92gDQlrSU7mv9XjlJBXo62,True,61,771.0,blue,neutral,가방,blue,,,,,,,,,,,
CJINye92gDQlrSU7mv9XjlJBXo62,True,62,909.0,red,incongruent,초록,red,,,,,,,,,,,
CJINye92gDQlrSU7mv9XjlJBXo62,True,63,1177.9999999999418,blue,neutral,학교,blue,,,,,,,,,,,
CJINye92gDQlrSU7mv9XjlJBXo62,True,64,501.9999999999418,blue,incongruent,빨강,blue,,,,,,,,,,,
CJINye92gDQlrSU7mv9XjlJBXo62,True,65,424.0,blue,congruent,파랑,blue,,,,,,,,,,,
CJINye92gDQlrSU7mv9XjlJBXo62,True,66,733.9999999999418,green,incongruent,노랑,green,,,,,,,,,,,
CJINye92gDQlrSU7mv9XjlJBXo62,True,67,511.0,blue,congruent,파랑,blue,,,,,,,,,,,
CJINye92gDQlrSU7mv9XjlJBXo62,True,68,1075.0,red,congruent,빨강,red,,,,,,,,,,,
CJINye92gDQlrSU7mv9XjlJBXo62,True,69,635.0,green,neutral,가방,green,,,,,,,,,,,
CJINye92gDQlrSU7mv9XjlJBXo62,True,70,778.0,blue,congruent,파랑,blue,,,,,,,,,,,
CJINye92gDQlrSU7mv9XjlJBXo62,True,71,1098.0,yellow,incongruent,초록,yellow,,,,,,,,,,,
CJINye92gDQlrSU7mv9XjlJBXo62,True,72,1342.0,blue,incongruent,노랑,blue,,,,,,,,,,,
CJINye92gDQlrSU7mv9XjlJBXo62,True,73,685.0,red,neutral,기차,red,,,,,,,,,,,
CJINye92gDQlrSU7mv9XjlJBXo62,True,74,1223.9999999999418,green,neutral,가방,green,,,,,,,,,,,
CJINye92gDQlrSU7mv9XjlJBXo62,True,75,676.0,blue,incongruent,빨강,blue,,,,,,,,,,,
CJINye92gDQlrSU7mv9XjlJBXo62,True,76,1076.9999999999418,red,congruent,빨강,red,,,,,,,,,,,
CJINye92gDQlrSU7mv9XjlJBXo62,True,77,448.0,red,incongruent,노랑,red,,,,,,,,,,,
CJINye92gDQlrSU7mv9XjlJBXo62,True,78,840.0,yellow,incongruent,빨강,yellow,,,,,,,,,,,
CJINye92gDQlrSU7mv9XjlJBXo62,True,79,743.0,blue,congruent,파랑,blue,,,,,,,,,,,
CJINye92gDQlrSU7mv9XjlJBXo62,True,80,800.9999999999418,green,neutral,기차,green,,,,,,,,,,,
CJINye92gDQlrSU7mv9XjlJBXo62,True,81,673.0,red,incongruent,노랑,red,,,,,,,,,,,
CJINye92gDQlrSU7mv9XjlJBXo62,True,82,932.0,blue,incongruent,초록,blue,,,,,,,,,,,
CJINye92gDQlrSU7mv9XjlJBXo62,True,83,914.9999999999418,green,neutral,학교,green,,,,,,,,,,,
CJINye92gDQlrSU7mv9XjlJBXo62,True,84,670.9999999999418,red,congruent,빨강,red,,,,,,,,,,,
CJINye92gDQlrSU7mv9XjlJBXo62,True,85,789.0,blue,neutral,가방,blue,,,,,,,,,,,
CJINye92gDQlrSU7mv9XjlJBXo62,True,86,582.0,blue,congruent,파랑,blue,,,,,,,,,,,
CJINye92gDQlrSU7mv9XjlJBXo62,True,87,783.0,yellow,neutral,기차,yellow,,,,,,,,,,,
CJINye92gDQlrSU7mv9XjlJBXo62,True,88,572.9999999999418,red,congruent,빨강,red,,,,,,,,,,,
CJINye92gDQlrSU7mv9XjlJBXo62,True,89,687.0,green,congruent,초록,green,,,,,,,,,,,
CJINye92gDQlrSU7mv9XjlJBXo62,True,90,558.0,green,incongruent,노랑,green,,,,,,,,,,,
CJINye92gDQlrSU7mv9XjlJBXo62,True,91,1035.0,red,incongruent,초록,red,,,,,,,,,,,
CJINye92gDQlrSU7mv9XjlJBXo62,True,92,734.0,blue,incongruent,초록,blue,,,,,,,,,,,
CJINye92gDQlrSU7mv9XjlJBXo62,True,93,650.0,yellow,incongruent,초록,yellow,,,,,,,,,,,
CJINye92gDQlrSU7mv9XjlJBXo62,True,94,1392.0,green,congruent,초록,green,,,,,,,,,,,
CJINye92gDQlrSU7mv9XjlJBXo62,True,95,960.0,blue,neutral,가방,blue,,,,,,,,,,,
CJINye92gDQlrSU7mv9XjlJBXo62,True,96,1246.0,yellow,congruent,노랑,yellow,,,,,,,,,,,
CJINye92gDQlrSU7mv9XjlJBXo62,True,97,1328.0,blue,neutral,기차,blue,,,,,,,,,,,
CJINye92gDQlrSU7mv9XjlJBXo62,True,98,1167.9999999999418,green,incongruent,빨강,green,,,,,,,,,,,
CJINye92gDQlrSU7mv9XjlJBXo62,True,99,1284.0,blue,incongruent,초록,blue,,,,,,,,,,,
CJINye92gDQlrSU7mv9XjlJBXo62,True,100,1033.0,red,neutral,기차,red,,,,,,,,,,,
CJINye92gDQlrSU7mv9XjlJBXo62,True,101,898.0,red,incongruent,노랑,red,,,,,,,,,,,
CJINye92gDQlrSU7mv9XjlJBXo62,True,102,992.0,red,congruent,빨강,red,,,,,,,,,,,
CJINye92gDQlrSU7mv9XjlJBXo62,True,103,490.0,red,neutral,가방,red,,,,,,,,,,,
CJINye92gDQlrSU7mv9XjlJBXo62,True,104,1323.0,yellow,neutral,학교,yellow,,,,,,,,,,,
CJINye92gDQlrSU7mv9XjlJBXo62,True,105,976.0,yellow,neutral,가방,yellow,,,,,,,,,,,
CJINye92gDQlrSU7mv9XjlJBXo62,True,106,511.0,yellow,congruent,노랑,yellow,,,,,,,,,,,
CJINye92gDQlrSU7mv9XjlJBXo62,True,107,1127.0,red,neutral,학교,red,,,,,,,,,,,
GE4hogtdLdTFbNasENgtm6SO3hC3,True,0,,yellow,neutral,기차,yellow,GE4hogtdLdTFbNasENgtm6SO3hC3,1070399.199999988,stroop,,False,neutral,"{'text': '기차', 'letterColor': 'yellow', 'userColor': 'yellow'}",False,1810.199999988079,1072209.3999999762,0.0
GE4hogtdLdTFbNasENgtm6SO3hC3,True,1,,yellow,incongruent,파랑,yellow,GE4hogtdLdTFbNasENgtm6SO3hC3,1072831.599999994,stroop,,False,incongruent,"{'text': '파랑', 'letterColor': 'yellow', 'userColor': 'yellow'}",False,1316.4000000059605,1074148.0,1.0
GE4hogtdLdTFbNasENgtm6SO3hC3,True,2,,green,incongruent,빨강,green,GE4hogtdLdTFbNasENgtm6SO3hC3,1074781.0,stroop,,False,incongruent,"{'text': '빨강', 'letterColor': 'green', 'userColor': 'green'}",False,1200.699999988079,1075981.699999988,2.0
GE4hogtdLdTFbNasENgtm6SO3hC3,True,3,,red,neutral,기차,red,GE4hogtdLdTFbNasENgtm6SO3hC3,1076608.5,stroop,,False,neutral,"{'text': '기차', 'letterColor': 'red', 'userColor': 'red'}",False,1185.5,1077794.0,3.0
GE4hogtdLdTFbNasENgtm6SO3hC3,True,4,,blue,neutral,기차,blue,GE4hogtdLdTFbNasENgtm6SO3hC3,1078412.0,stroop,,False,neutral,"{'text': '기차', 'letterColor': 'blue', 'userColor': 'blue'}",False,1648.0999999940395,1080060.099999994,4.0
GE4hogtdLdTFbNasENgtm6SO3hC3,True,5,,yellow,congruent,노랑,yellow,GE4hogtdLdTFbNasENgtm6SO3hC3,1080677.5,stroop,,False,congruent,"{'text': '노랑', 'letterColor': 'yellow', 'userColor': 'yellow'}",False,1184.5,1081862.0,5.0
GE4hogtdLdTFbNasENgtm6SO3hC3,False,6,,yellow,incongruent,초록,green,GE4hogtdLdTFbNasENgtm6SO3hC3,1082479.199999988,stroop,,False,incongruent,"{'text': '초록', 'letterColor': 'yellow', 'userColor': 'green'}",False,1095.5,1083574.699999988,6.0
GE4hogtdLdTFbNasENgtm6SO3hC3,True,7,,red,neutral,학교,red,GE4hogtdLdTFbNasENgtm6SO3hC3,1084198.0,stroop,,False,neutral,"{'text': '학교', 'letterColor': 'red', 'userColor': 'red'}",False,1230.5999999940395,1085428.599999994,7.0
GE4hogtdLdTFbNasENgtm6SO3hC3,True,8,,yellow,neutral,가방,yellow,GE4hogtdLdTFbNasENgtm6SO3hC3,1086063.699999988,stroop,,False,neutral,"{'text': '가방', 'letterColor': 'yellow', 'userColor': 'yellow'}",False,1194.5,1087258.199999988,8.0
GE4hogtdLdTFbNasENgtm6SO3hC3,True,9,,red,congruent,빨강,red,GE4hogtdLdTFbNasENgtm6SO3hC3,1087872.0,stroop,,False,congruent,"{'text': '빨강', 'letterColor': 'red', 'userColor': 'red'}",False,1214.8999999761581,1089086.8999999762,9.0
GE4hogtdLdTFbNasENgtm6SO3hC3,True,10,,red,neutral,가방,red,GE4hogtdLdTFbNasENgtm6SO3hC3,1089712.3999999762,stroop,,False,neutral,"{'text': '가방', 'letterColor': 'red', 'userColor': 'red'}",False,1505.1000000238419,1091217.5,10.0
GE4hogtdLdTFbNasENgtm6SO3hC3,True,11,,red,incongruent,파랑,red,GE4hogtdLdTFbNasENgtm6SO3hC3,1091830.7999999821,stroop,,False,incongruent,"{'text': '파랑', 'letterColor': 'red', 'userColor': 'red'}",False,1283.4000000059605,1093114.199999988,11.0
GE4hogtdLdTFbNasENgtm6SO3hC3,True,12,,yellow,congruent,노랑,yellow,GE4hogtdLdTFbNasENgtm6SO3hC3,1093744.5,stroop,,False,congruent,"{'text': '노랑', 'letterColor': 'yellow', 'userColor': 'yellow'}",False,1093.699999988079,1094838.199999988,12.0
GE4hogtdLdTFbNasENgtm6SO3hC3,True,13,,yellow,incongruent,초록,yellow,GE4hogtdLdTFbNasENgtm6SO3hC3,1095463.699999988,stroop,,False,incongruent,"{'text': '초록', 'letterColor': 'yellow', 'userColor': 'yellow'}",False,1538.699999988079,1097002.3999999762,13.0
GE4hogtdLdTFbNasENgtm6SO3hC3,True,14,,green,neutral,학교,green,GE4hogtdLdTFbNasENgtm6SO3hC3,1097634.0,stroop,,False,neutral,"{'text': '학교', 'letterColor': 'green', 'userColor': 'green'}",False,1567.5999999940395,1099201.599999994,14.0
GE4hogtdLdTFbNasENgtm6SO3hC3,True,15,,yellow,incongruent,빨강,yellow,GE4hogtdLdTFbNasENgtm6SO3hC3,1099815.8999999762,stroop,,False,incongruent,"{'text': '빨강', 'letterColor': 'yellow', 'userColor': 'yellow'}",False,1471.300000011921,1101287.199999988,15.0
GE4hogtdLdTFbNasENgtm6SO3hC3,True,16,,green,incongruent,노랑,green,GE4hogtdLdTFbNasENgtm6SO3hC3,1101916.5,stroop,,False,incongruent,"{'text': '노랑', 'letterColor': 'green', 'userColor': 'green'}",False,1286.2999999821186,1103202.7999999821,16.0
GE4hogtdLdTFbNasENgtm6SO3hC3,True,17,,blue,congruent,파랑,blue,GE4hogtdLdTFbNasENgtm6SO3hC3,1103813.5,stroop,,False,congruent,"{'text': '파랑', 'letterColor': 'blue', 'userColor': 'blue'}",False,1017.8999999761581,1104831.3999999762,17.0
GE4hogtdLdTFbNasENgtm6SO3hC3,True,18,,blue,incongruent,노랑,blue,GE4hogtdLdTFbNasENgtm6SO3hC3,1105444.3999999762,stroop,,False,incongruent,"{'text': '노랑', 'letterColor': 'blue', 'userColor': 'blue'}",False,1801.6000000238419,1107246.0,18.0
GE4hogtdLdTFbNasENgtm6SO3hC3,True,19,,green,congruent,초록,green,GE4hogtdLdTFbNasENgtm6SO3hC3,1107867.7999999821,stroop,,False,congruent,"{'text': '초록', 'letterColor': 'green', 'userColor': 'green'}",False,921.0999999940395,1108788.8999999762,19.0
GE4hogtdLdTFbNasENgtm6SO3hC3,True,20,,green,neutral,가방,green,GE4hogtdLdTFbNasENgtm6SO3hC3,1109412.099999994,stroop,,False,neutral,"{'text': '가방', 'letterColor': 'green', 'userColor': 'green'}",False,2332.199999988079,1111744.2999999821,20.0
GE4hogtdLdTFbNasENgtm6SO3hC3,True,21,,green,congruent,초록,green,GE4hogtdLdTFbNasENgtm6SO3hC3,1112363.3999999762,stroop,,False,congruent,"{'text': '초록', 'letterColor': 'green', 'userColor': 'green'}",False,575.1000000238419,1112938.5,21.0
GE4hogtdLdTFbNasENgtm6SO3hC3,True,22,,red,congruent,빨강,red,GE4hogtdLdTFbNasENgtm6SO3hC3,1113561.699999988,stroop,,False,congruent,"{'text': '빨강', 'letterColor': 'red', 'userColor': 'red'}",False,851.1999999880791,1114412.8999999762,22.0
GE4hogtdLdTFbNasENgtm6SO3hC3,True,23,,blue,neutral,기차,blue,GE4hogtdLdTFbNasENgtm6SO3hC3,1115028.699999988,stroop,,False,neutral,"{'text': '기차', 'letterColor': 'blue', 'userColor': 'blue'}",False,832.5,1115861.199999988,23.0
GE4hogtdLdTFbNasENgtm6SO3hC3,True,24,,yellow,congruent,노랑,yellow,GE4hogtdLdTFbNasENgtm6SO3hC3,1116478.3999999762,stroop,,False,congruent,"{'text': '노랑', 'letterColor': 'yellow', 'userColor': 'yellow'}",False,1966.800000011921,1118445.199999988,24.0
GE4hogtdLdTFbNasENgtm6SO3hC3,True,25,,blue,congruent,파랑,blue,GE4hogtdLdTFbNasENgtm6SO3hC3,1119063.599999994,stroop,,False,congruent,"{'text': '파랑', 'letterColor': 'blue', 'userColor': 'blue'}",False,1308.5,1120372.099999994,25.0
GE4hogtdLdTFbNasENgtm6SO3hC3,True,26,,yellow,neutral,기차,yellow,GE4hogtdLdTFbNasENgtm6SO3hC3,1120995.099999994,stroop,,False,neutral,"{'text': '기차', 'letterColor': 'yellow', 'userColor': 'yellow'}",False,1409.199999988079,1122404.2999999821,26.0
GE4hogtdLdTFbNasENgtm6SO3hC3,True,27,,blue,incongruent,노랑,blue,GE4hogtdLdTFbNasENgtm6SO3hC3,1123027.599999994,stroop,,False,incongruent,"{'text': '노랑', 'letterColor': 'blue', 'userColor': 'blue'}",False,1379.9000000059605,1124407.5,27.0
GE4hogtdLdTFbNasENgtm6SO3hC3,True,28,,red,incongruent,파랑,red,GE4hogtdLdTFbNasENgtm6SO3hC3,1125028.599999994,stroop,,False,incongruent,"{'text': '파랑', 'letterColor': 'red', 'userColor': 'red'}",False,1638.5999999940395,1126667.199999988,28.0
GE4hogtdLdTFbNasENgtm6SO3hC3,False,29,,green,congruent,초록,noResp,GE4hogtdLdTFbNasENgtm6SO3hC3,1127280.8999999762,stroop,,True,congruent,"{'text': '초록', 'letterColor': 'green', 'userColor': 'noResp'}",True,,,29.0
GE4hogtdLdTFbNasENgtm6SO3hC3,False,30,,red,incongruent,노랑,yellow,GE4hogtdLdTFbNasENgtm6SO3hC3,1130918.099999994,stroop,,False,incongruent,"{'text': '노랑', 'letterColor': 'red', 'userColor': 'yellow'}",False,2907.0999999940395,1133825.199999988,30.0
GE4hogtdLdTFbNasENgtm6SO3hC3,True,31,,blue,incongruent,초록,blue,GE4hogtdLdTFbNasENgtm6SO3hC3,1134454.2999999821,stroop,,False,incongruent,"{'text': '초록', 'letterColor': 'blue', 'userColor': 'blue'}",False,1961.2000000178814,1136415.5,31.0
GE4hogtdLdTFbNasENgtm6SO3hC3,True,32,,yellow,congruent,노랑,yellow,GE4hogtdLdTFbNasENgtm6SO3hC3,1137041.5,stroop,,False,congruent,"{'text': '노랑', 'letterColor': 'yellow', 'userColor': 'yellow'}",False,1139.0999999940395,1138180.599999994,32.0
GE4hogtdLdTFbNasENgtm6SO3hC3,True,33,,red,neutral,학교,red,GE4hogtdLdTFbNasENgtm6SO3hC3,1138791.7999999821,stroop,,False,neutral,"{'text': '학교', 'letterColor': 'red', 'userColor': 'red'}",False,1330.300000011921,1140122.099999994,33.0
GE4hogtdLdTFbNasENgtm6SO3hC3,True,34,,green,congruent,초록,green,GE4hogtdLdTFbNasENgtm6SO3hC3,1140749.099999994,stroop,,False,congruent,"{'text': '초록', 'letterColor': 'green', 'userColor': 'green'}",False,1110.699999988079,1141859.7999999821,34.0
GE4hogtdLdTFbNasENgtm6SO3hC3,True,35,,red,congruent,빨강,red,GE4hogtdLdTFbNasENgtm6SO3hC3,1142472.199999988,stroop,,False,congruent,"{'text': '빨강', 'letterColor': 'red', 'userColor': 'red'}",False,1125.300000011921,1143597.5,35.0
GE4hogtdLdTFbNasENgtm6SO3hC3,True,36,,green,neutral,학교,green,GE4hogtdLdTFbNasENgtm6SO3hC3,1144212.099999994,stroop,,False,neutral,"{'text': '학교', 'letterColor': 'green', 'userColor': 'green'}",False,970.4000000059605,1145182.5,36.0
GE4hogtdLdTFbNasENgtm6SO3hC3,True,37,,green,congruent,초록,green,GE4hogtdLdTFbNasENgtm6SO3hC3,1145810.599999994,stroop,,False,congruent,"{'text': '초록', 'letterColor': 'green', 'userColor': 'green'}",False,604.4000000059605,1146415.0,37.0
GE4hogtdLdTFbNasENgtm6SO3hC3,True,38,,blue,incongruent,초록,blue,GE4hogtdLdTFbNasENgtm6SO3hC3,1147028.2999999821,stroop,,False,incongruent,"{'text': '초록', 'letterColor': 'blue', 'userColor': 'blue'}",False,1851.5999999940395,1148879.8999999762,38.0
GE4hogtdLdTFbNasENgtm6SO3hC3,True,39,,blue,incongruent,빨강,blue,GE4hogtdLdTFbNasENgtm6SO3hC3,1149500.199999988,stroop,,False,incongruent,"{'text': '빨강', 'letterColor': 'blue', 'userColor': 'blue'}",False,765.0999999940395,1150265.2999999821,39.0
GE4hogtdLdTFbNasENgtm6SO3hC3,False,40,,green,incongruent,파랑,blue,GE4hogtdLdTFbNasENgtm6SO3hC3,1150896.699999988,stroop,,False,incongruent,"{'text': '파랑', 'letterColor': 'green', 'userColor': 'blue'}",False,891.5,1151788.199999988,40.0
GE4hogtdLdTFbNasENgtm6SO3hC3,True,41,,blue,neutral,학교,blue,GE4hogtdLdTFbNasENgtm6SO3hC3,1152402.7999999821,stroop,,False,neutral,"{'text': '학교', 'letterColor': 'blue', 'userColor': 'blue'}",False,955.3000000119209,1153358.099999994,41.0
GE4hogtdLdTFbNasENgtm6SO3hC3,True,42,,blue,congruent,파랑,blue,GE4hogtdLdTFbNasENgtm6SO3hC3,1153977.7999999821,stroop,,False,congruent,"{'text': '파랑', 'letterColor': 'blue', 'userColor': 'blue'}",False,633.3000000119209,1154611.099999994,42.0
GE4hogtdLdTFbNasENgtm6SO3hC3,True,43,,blue,incongruent,빨강,blue,GE4hogtdLdTFbNasENgtm6SO3hC3,1155230.099999994,stroop,,False,incongruent,"{'text': '빨강', 'letterColor': 'blue', 'userColor': 'blue'}",False,602.6999999880791,1155832.7999999821,43.0
GE4hogtdLdTFbNasENgtm6SO3hC3,True,44,,yellow,incongruent,초록,yellow,GE4hogtdLdTFbNasENgtm6SO3hC3,1156455.199999988,stroop,,False,incongruent,"{'text': '초록', 'letterColor': 'yellow', 'userColor': 'yellow'}",False,1413.5999999940395,1157868.7999999821,44.0
GE4hogtdLdTFbNasENgtm6SO3hC3,True,45,,red,congruent,빨강,red,GE4hogtdLdTFbNasENgtm6SO3hC3,1158480.5,stroop,,False,congruent,"{'text': '빨강', 'letterColor': 'red', 'userColor': 'red'}",False,1555.5999999940395,1160036.099999994,45.0
GE4hogtdLdTFbNasENgtm6SO3hC3,True,46,,yellow,neutral,학교,yellow,GE4hogtdLdTFbNasENgtm6SO3hC3,1160656.199999988,stroop,,False,neutral,"{'text': '학교', 'letterColor': 'yellow', 'userColor': 'yellow'}",False,1337.800000011921,1161994.0,46.0
GE4hogtdLdTFbNasENgtm6SO3hC3,True,47,,blue,congruent,파랑,blue,GE4hogtdLdTFbNasENgtm6SO3hC3,1162608.2999999821,stroop,,False,congruent,"{'text': '파랑', 'letterColor': 'blue', 'userColor': 'blue'}",False,1130.0999999940395,1163738.3999999762,47.0
GE4hogtdLdTFbNasENgtm6SO3hC3,True,48,,blue,incongruent,빨강,blue,GE4hogtdLdTFbNasENgtm6SO3hC3,1164361.3999999762,stroop,,False,incongruent,"{'text': '빨강', 'letterColor': 'blue', 'userColor': 'blue'}",False,443.7000000178814,1164805.099999994,48.0
GE4hogtdLdTFbNasENgtm6SO3hC3,True,49,,green,congruent,초록,green,GE4hogtdLdTFbNasENgtm6SO3hC3,1165433.199999988,stroop,,False,congruent,"{'text': '초록', 'letterColor': 'green', 'userColor': 'green'}",False,1412.5999999940395,1166845.7999999821,49.0
GE4hogtdLdTFbNasENgtm6SO3hC3,True,50,,green,incongruent,빨강,green,GE4hogtdLdTFbNasENgtm6SO3hC3,1167475.099999994,stroop,,False,incongruent,"{'text': '빨강', 'letterColor': 'green', 'userColor': 'green'}",False,1095.0999999940395,1168570.199999988,50.0
GE4hogtdLdTFbNasENgtm6SO3hC3,True,51,,green,congruent,초록,green,GE4hogtdLdTFbNasENgtm6SO3hC3,1169195.8999999762,stroop,,False,congruent,"{'text': '초록', 'letterColor': 'green', 'userColor': 'green'}",False,651.1000000238419,1169847.0,51.0
GE4hogtdLdTFbNasENgtm6SO3hC3,True,52,,red,neutral,가방,red,GE4hogtdLdTFbNasENgtm6SO3hC3,1170466.199999988,stroop,,False,neutral,"{'text': '가방', 'letterColor': 'red', 'userColor': 'red'}",False,1356.800000011921,1171823.0,52.0
GE4hogtdLdTFbNasENgtm6SO3hC3,True,53,,blue,neutral,학교,blue,GE4hogtdLdTFbNasENgtm6SO3hC3,1172458.699999988,stroop,,False,neutral,"{'text': '학교', 'letterColor': 'blue', 'userColor': 'blue'}",False,1075.800000011921,1173534.5,53.0
GE4hogtdLdTFbNasENgtm6SO3hC3,True,54,,green,neutral,가방,green,GE4hogtdLdTFbNasENgtm6SO3hC3,1174161.2999999821,stroop,,False,neutral,"{'text': '가방', 'letterColor': 'green', 'userColor': 'green'}",False,1339.4000000059605,1175500.699999988,54.0
GE4hogtdLdTFbNasENgtm6SO3hC3,True,55,,red,incongruent,초록,red,GE4hogtdLdTFbNasENgtm6SO3hC3,1176120.0,stroop,,False,incongruent,"{'text': '초록', 'letterColor': 'red', 'userColor': 'red'}",False,1642.199999988079,1177762.199999988,55.0
GE4hogtdLdTFbNasENgtm6SO3hC3,True,56,,yellow,incongruent,파랑,yellow,GE4hogtdLdTFbNasENgtm6SO3hC3,1178385.3999999762,stroop,,False,incongruent,"{'text': '파랑', 'letterColor': 'yellow', 'userColor': 'yellow'}",False,1490.5,1179875.8999999762,56.0
GE4hogtdLdTFbNasENgtm6SO3hC3,True,57,,red,neutral,가방,red,GE4hogtdLdTFbNasENgtm6SO3hC3,1180498.8999999762,stroop,,False,neutral,"{'text': '가방', 'letterColor': 'red', 'userColor': 'red'}",False,1417.5,1181916.3999999762,57.0
GE4hogtdLdTFbNasENgtm6SO3hC3,True,58,,red,congruent,빨강,red,GE4hogtdLdTFbNasENgtm6SO3hC3,1182544.699999988,stroop,,False,congruent,"{'text': '빨강', 'letterColor': 'red', 'userColor': 'red'}",False,645.5999999940395,1183190.2999999821,58.0
GE4hogtdLdTFbNasENgtm6SO3hC3,True,59,,green,neutral,기차,green,GE4hogtdLdTFbNasENgtm6SO3hC3,1183816.2999999821,stroop,,False,neutral,"{'text': '기차', 'letterColor': 'green', 'userColor': 'green'}",False,1099.0,1184915.2999999821,59.0
GE4hogtdLdTFbNasENgtm6SO3hC3,True,60,,blue,neutral,학교,blue,GE4hogtdLdTFbNasENgtm6SO3hC3,1185545.8999999762,stroop,,False,neutral,"{'text': '학교', 'letterColor': 'blue', 'userColor': 'blue'}",False,1191.0,1186736.8999999762,60.0
GE4hogtdLdTFbNasENgtm6SO3hC3,True,61,,yellow,neutral,기차,yellow,GE4hogtdLdTFbNasENgtm6SO3hC3,1187361.7999999821,stroop,,False,neutral,"{'text': '기차', 'letterColor': 'yellow', 'userColor': 'yellow'}",False,1311.9000000059605,1188673.699999988,61.0
GE4hogtdLdTFbNasENgtm6SO3hC3,True,62,,green,neutral,기차,green,GE4hogtdLdTFbNasENgtm6SO3hC3,1189299.7999999821,stroop,,False,neutral,"{'text': '기차', 'letterColor': 'green', 'userColor': 'green'}",False,1445.5,1190745.2999999821,62.0
GE4hogtdLdTFbNasENgtm6SO3hC3,True,63,,yellow,incongruent,빨강,yellow,GE4hogtdLdTFbNasENgtm6SO3hC3,1191363.5,stroop,,False,incongruent,"{'text': '빨강', 'letterColor': 'yellow', 'userColor': 'yellow'}",False,1471.5999999940395,1192835.099999994,63.0
GE4hogtdLdTFbNasENgtm6SO3hC3,True,64,,yellow,incongruent,파랑,yellow,GE4hogtdLdTFbNasENgtm6SO3hC3,1193445.599999994,stroop,,False,incongruent,"{'text': '파랑', 'letterColor': 'yellow', 'userColor': 'yellow'}",False,972.7999999821186,1194418.3999999762,64.0
GE4hogtdLdTFbNasENgtm6SO3hC3,True,65,,yellow,congruent,노랑,yellow,GE4hogtdLdTFbNasENgtm6SO3hC3,1195045.8999999762,stroop,,False,congruent,"{'text': '노랑', 'letterColor': 'yellow', 'userColor': 'yellow'}",False,762.7000000178814,1195808.599999994,65.0
GE4hogtdLdTFbNasENgtm6SO3hC3,True,66,,red,neutral,학교,red,GE4hogtdLdTFbNasENgtm6SO3hC3,1196440.2999999821,stroop,,False,neutral,"{'text': '학교', 'letterColor': 'red', 'userColor': 'red'}",False,1918.5,1198358.7999999821,66.0
GE4hogtdLdTFbNasENgtm6SO3hC3,True,67,,yellow,incongruent,빨강,yellow,GE4hogtdLdTFbNasENgtm6SO3hC3,1198968.7999999821,stroop,,False,incongruent,"{'text': '빨강', 'letterColor': 'yellow', 'userColor': 'yellow'}",False,1477.0,1200445.7999999821,67.0
GE4hogtdLdTFbNasENgtm6SO3hC3,True,68,,green,incongruent,파랑,green,GE4hogtdLdTFbNasENgtm6SO3hC3,1201064.0,stroop,,False,incongruent,"{'text': '파랑', 'letterColor': 'green', 'userColor': 'green'}",False,996.8999999761581,1202060.8999999762,68.0
GE4hogtdLdTFbNasENgtm6SO3hC3,True,69,,blue,incongruent,노랑,blue,GE4hogtdLdTFbNasENgtm6SO3hC3,1202677.7999999821,stroop,,False,incongruent,"{'text': '노랑', 'letterColor': 'blue', 'userColor': 'blue'}",False,952.2000000178814,1203630.0,69.0
GE4hogtdLdTFbNasENgtm6SO3hC3,True,70,,red,congruent,빨강,red,GE4hogtdLdTFbNasENgtm6SO3hC3,1204262.3999999762,stroop,,False,congruent,"{'text': '빨강', 'letterColor': 'red', 'userColor': 'red'}",False,1214.1000000238419,1205476.5,70.0
GE4hogtdLdTFbNasENgtm6SO3hC3,True,71,,blue,neutral,가방,blue,GE4hogtdLdTFbNasENgtm6SO3hC3,1206104.599999994,stroop,,False,neutral,"{'text': '가방', 'letterColor': 'blue', 'userColor': 'blue'}",False,1140.5999999940395,1207245.199999988,71.0
GE4hogtdLdTFbNasENgtm6SO3hC3,True,72,,blue,congruent,파랑,blue,GE4hogtdLdTFbNasENgtm6SO3hC3,1207868.3999999762,stroop,,False,congruent,"{'text': '파랑', 'letterColor': 'blue', 'userColor': 'blue'}",False,821.9000000059605,1208690.2999999821,72.0
GE4hogtdLdTFbNasENgtm6SO3hC3,True,73,,yellow,congruent,노랑,yellow,GE4hogtdLdTFbNasENgtm6SO3hC3,1209317.699999988,stroop,,False,congruent,"{'text': '노랑', 'letterColor': 'yellow', 'userColor': 'yellow'}",False,1014.8000000119209,1210332.5,73.0
GE4hogtdLdTFbNasENgtm6SO3hC3,True,74,,green,incongruent,노랑,green,GE4hogtdLdTFbNasENgtm6SO3hC3,1210961.3999999762,stroop,,False,incongruent,"{'text': '노랑', 'letterColor': 'green', 'userColor': 'green'}",False,1327.7000000178814,1212289.099999994,74.0
GE4hogtdLdTFbNasENgtm6SO3hC3,True,75,,blue,congruent,파랑,blue,GE4hogtdLdTFbNasENgtm6SO3hC3,1212914.8999999762,stroop,,False,congruent,"{'text': '파랑', 'letterColor': 'blue', 'userColor': 'blue'}",False,1048.9000000059605,1213963.7999999821,75.0
GE4hogtdLdTFbNasENgtm6SO3hC3,True,76,,green,incongruent,파랑,green,GE4hogtdLdTFbNasENgtm6SO3hC3,1214584.2999999821,stroop,,False,incongruent,"{'text': '파랑', 'letterColor': 'green', 'userColor': 'green'}",False,984.3000000119209,1215568.599999994,76.0
GE4hogtdLdTFbNasENgtm6SO3hC3,True,77,,yellow,neutral,학교,yellow,GE4hogtdLdTFbNasENgtm6SO3hC3,1216182.199999988,stroop,,False,neutral,"{'text': '학교', 'letterColor': 'yellow', 'userColor': 'yellow'}",False,960.4000000059605,1217142.599999994,77.0
GE4hogtdLdTFbNasENgtm6SO3hC3,True,78,,green,neutral,학교,green,GE4hogtdLdTFbNasENgtm6SO3hC3,1217765.5,stroop,,False,neutral,"{'text': '학교', 'letterColor': 'green', 'userColor': 'green'}",False,1267.5,1219033.0,78.0
GE4hogtdLdTFbNasENgtm6SO3hC3,True,79,,red,neutral,기차,red,GE4hogtdLdTFbNasENgtm6SO3hC3,1219651.099999994,stroop,,False,neutral,"{'text': '기차', 'letterColor': 'red', 'userColor': 'red'}",False,1273.7999999821186,1220924.8999999762,79.0
GE4hogtdLdTFbNasENgtm6SO3hC3,True,80,,blue,congruent,파랑,blue,GE4hogtdLdTFbNasENgtm6SO3hC3,1221537.3999999762,stroop,,False,congruent,"{'text': '파랑', 'letterColor': 'blue', 'userColor': 'blue'}",False,1100.300000011921,1222637.699999988,80.0
GE4hogtdLdTFbNasENgtm6SO3hC3,True,81,,red,congruent,빨강,red,GE4hogtdLdTFbNasENgtm6SO3hC3,1223261.7999999821,stroop,,False,congruent,"{'text': '빨강', 'letterColor': 'red', 'userColor': 'red'}",False,1919.7000000178814,1225181.5,81.0
GE4hogtdLdTFbNasENgtm6SO3hC3,True,82,,blue,congruent,파랑,blue,GE4hogtdLdTFbNasENgtm6SO3hC3,1225801.699999988,stroop,,False,congruent,"{'text': '파랑', 'letterColor': 'blue', 'userColor': 'blue'}",False,2023.5999999940395,1227825.2999999821,82.0
GE4hogtdLdTFbNasENgtm6SO3hC3,True,83,,blue,neutral,가방,blue,GE4hogtdLdTFbNasENgtm6SO3hC3,1228447.0,stroop,,False,neutral,"{'text': '가방', 'letterColor': 'blue', 'userColor': 'blue'}",False,917.6999999880791,1229364.699999988,83.0
GE4hogtdLdTFbNasENgtm6SO3hC3,True,84,,yellow,congruent,노랑,yellow,GE4hogtdLdTFbNasENgtm6SO3hC3,1229979.199999988,stroop,,False,congruent,"{'text': '노랑', 'letterColor': 'yellow', 'userColor': 'yellow'}",False,953.4000000059605,1230932.599999994,84.0
GE4hogtdLdTFbNasENgtm6SO3hC3,True,85,,red,incongruent,파랑,red,GE4hogtdLdTFbNasENgtm6SO3hC3,1231562.099999994,stroop,,False,incongruent,"{'text': '파랑', 'letterColor': 'red', 'userColor': 'red'}",False,1578.0999999940395,1233140.199999988,85.0
GE4hogtdLdTFbNasENgtm6SO3hC3,True,86,,green,congruent,초록,green,GE4hogtdLdTFbNasENgtm6SO3hC3,1233774.3999999762,stroop,,False,congruent,"{'text': '초록', 'letterColor': 'green', 'userColor': 'green'}",False,1777.800000011921,1235552.199999988,86.0
GE4hogtdLdTFbNasENgtm6SO3hC3,True,87,,green,neutral,기차,green,GE4hogtdLdTFbNasENgtm6SO3hC3,1236184.099999994,stroop,,False,neutral,"{'text': '기차', 'letterColor': 'green', 'userColor': 'green'}",False,578.5,1236762.599999994,87.0
GE4hogtdLdTFbNasENgtm6SO3hC3,True,88,,green,congruent,초록,green,GE4hogtdLdTFbNasENgtm6SO3hC3,1237382.3999999762,stroop,,False,congruent,"{'text': '초록', 'letterColor': 'green', 'userColor': 'green'}",False,609.1000000238419,1237991.5,88.0
GE4hogtdLdTFbNasENgtm6SO3hC3,True,89,,green,neutral,가방,green,GE4hogtdLdTFbNasENgtm6SO3hC3,1238612.0,stroop,,False,neutral,"{'text': '가방', 'letterColor': 'green', 'userColor': 'green'}",False,601.0,1239213.0,89.0
GE4hogtdLdTFbNasENgtm6SO3hC3,True,90,,red,incongruent,초록,red,GE4hogtdLdTFbNasENgtm6SO3hC3,1239830.0,stroop,,False,incongruent,"{'text': '초록', 'letterColor': 'red', 'userColor': 'red'}",False,1170.2999999821186,1241000.2999999821,90.0
GE4hogtdLdTFbNasENgtm6SO3hC3,True,91,,yellow,congruent,노랑,yellow,GE4hogtdLdTFbNasENgtm6SO3hC3,1241612.5,stroop,,False,congruent,"{'text': '노랑', 'letterColor': 'yellow', 'userColor': 'yellow'}",False,1064.5999999940395,1242677.099999994,91.0
GE4hogtdLdTFbNasENgtm6SO3hC3,True,92,,yellow,neutral,가방,yellow,GE4hogtdLdTFbNasENgtm6SO3hC3,1243298.3999999762,stroop,,False,neutral,"{'text': '가방', 'letterColor': 'yellow', 'userColor': 'yellow'}",False,576.9000000059605,1243875.2999999821,92.0
GE4hogtdLdTFbNasENgtm6SO3hC3,True,93,,blue,neutral,기차,blue,GE4hogtdLdTFbNasENgtm6SO3hC3,1244495.099999994,stroop,,False,neutral,"{'text': '기차', 'letterColor': 'blue', 'userColor': 'blue'}",False,977.1999999880791,1245472.2999999821,93.0
GE4hogtdLdTFbNasENgtm6SO3hC3,True,94,,red,congruent,빨강,red,GE4hogtdLdTFbNasENgtm6SO3hC3,1246088.3999999762,stroop,,False,congruent,"{'text': '빨강', 'letterColor': 'red', 'userColor': 'red'}",False,1143.300000011921,1247231.699999988,94.0
GE4hogtdLdTFbNasENgtm6SO3hC3,True,95,,blue,neutral,가방,blue,GE4hogtdLdTFbNasENgtm6SO3hC3,1247863.199999988,stroop,,False,neutral,"{'text': '가방', 'letterColor': 'blue', 'userColor': 'blue'}",False,1037.300000011921,1248900.5,95.0
GE4hogtdLdTFbNasENgtm6SO3hC3,True,96,,blue,incongruent,초록,blue,GE4hogtdLdTFbNasENgtm6SO3hC3,1249513.7999999821,stroop,,False,incongruent,"{'text': '초록', 'letterColor': 'blue', 'userColor': 'blue'}",False,502.59999999403954,1250016.3999999762,96.0
GE4hogtdLdTFbNasENgtm6SO3hC3,True,97,,blue,congruent,파랑,blue,GE4hogtdLdTFbNasENgtm6SO3hC3,1250631.8999999762,stroop,,False,congruent,"{'text': '파랑', 'letterColor': 'blue', 'userColor': 'blue'}",False,493.2000000178814,1251125.099999994,97.0
GE4hogtdLdTFbNasENgtm6SO3hC3,True,98,,green,incongruent,빨강,green,GE4hogtdLdTFbNasENgtm6SO3hC3,1251739.0,stroop,,False,incongruent,"{'text': '빨강', 'letterColor': 'green', 'userColor': 'green'}",False,1054.5999999940395,1252793.599999994,98.0
GE4hogtdLdTFbNasENgtm6SO3hC3,True,99,,red,incongruent,노랑,red,GE4hogtdLdTFbNasENgtm6SO3hC3,1253403.3999999762,stroop,,False,incongruent,"{'text': '노랑', 'letterColor': 'red', 'userColor': 'red'}",False,1361.4000000059605,1254764.7999999821,99.0
GE4hogtdLdTFbNasENgtm6SO3hC3,True,100,,red,neutral,기차,red,GE4hogtdLdTFbNasENgtm6SO3hC3,1255396.199999988,stroop,,False,neutral,"{'text': '기차', 'letterColor': 'red', 'userColor': 'red'}",False,785.4000000059605,1256181.599999994,100.0
GE4hogtdLdTFbNasENgtm6SO3hC3,True,101,,yellow,neutral,학교,yellow,GE4hogtdLdTFbNasENgtm6SO3hC3,1256797.699999988,stroop,,False,neutral,"{'text': '학교', 'letterColor': 'yellow', 'userColor': 'yellow'}",False,1179.0999999940395,1257976.7999999821,101.0
GE4hogtdLdTFbNasENgtm6SO3hC3,True,102,,red,incongruent,초록,red,GE4hogtdLdTFbNasENgtm6SO3hC3,1258596.2999999821,stroop,,False,incongruent,"{'text': '초록', 'letterColor': 'red', 'userColor': 'red'}",False,1122.0,1259718.2999999821,102.0
GE4hogtdLdTFbNasENgtm6SO3hC3,True,103,,yellow,congruent,노랑,yellow,GE4hogtdLdTFbNasENgtm6SO3hC3,1260345.599999994,stroop,,False,congruent,"{'text': '노랑', 'letterColor': 'yellow', 'userColor': 'yellow'}",False,1051.2999999821186,1261396.8999999762,103.0
GE4hogtdLdTFbNasENgtm6SO3hC3,True,104,,red,incongruent,노랑,red,GE4hogtdLdTFbNasENgtm6SO3hC3,1262015.199999988,stroop,,False,incongruent,"{'text': '노랑', 'letterColor': 'red', 'userColor': 'red'}",False,1480.300000011921,1263495.5,104.0
GE4hogtdLdTFbNasENgtm6SO3hC3,True,105,,yellow,neutral,가방,yellow,GE4hogtdLdTFbNasENgtm6SO3hC3,1264115.3999999762,stroop,,False,neutral,"{'text': '가방', 'letterColor': 'yellow', 'userColor': 'yellow'}",False,1452.9000000059605,1265568.2999999821,105.0
GE4hogtdLdTFbNasENgtm6SO3hC3,True,106,,red,congruent,빨강,red,GE4hogtdLdTFbNasENgtm6SO3hC3,1266197.7999999821,stroop,,False,congruent,"{'text': '빨강', 'letterColor': 'red', 'userColor': 'red'}",False,1365.0999999940395,1267562.8999999762,106.0
GE4hogtdLdTFbNasENgtm6SO3hC3,True,107,,green,incongruent,노랑,green,GE4hogtdLdTFbNasENgtm6SO3hC3,1268180.599999994,stroop,,False,incongruent,"{'text': '노랑', 'letterColor': 'green', 'userColor': 'green'}",False,1185.2999999821186,1269365.8999999762,107.0
Qv0jhW3sqicqQvd7LfReAsI7nD73,True,0,,yellow,incongruent,파랑,yellow,Qv0jhW3sqicqQvd7LfReAsI7nD73,192325.20000001788,stroop,,False,incongruent,"{'text': '파랑', 'letterColor': 'yellow', 'userColor': 'yellow'}",False,1200.0,193525.20000001788,0.0
Qv0jhW3sqicqQvd7LfReAsI7nD73,True,1,,red,congruent,빨강,red,Qv0jhW3sqicqQvd7LfReAsI7nD73,194155.5,stroop,,False,congruent,"{'text': '빨강', 'letterColor': 'red', 'userColor': 'red'}",False,684.9000000059605,194840.40000000596,1.0
Qv0jhW3sqicqQvd7LfReAsI7nD73,True,2,,green,neutral,가방,green,Qv0jhW3sqicqQvd7LfReAsI7nD73,195452.70000001788,stroop,,False,neutral,"{'text': '가방', 'letterColor': 'green', 'userColor': 'green'}",False,794.3999999761581,196247.09999999404,2.0
Qv0jhW3sqicqQvd7LfReAsI7nD73,True,3,,blue,neutral,학교,blue,Qv0jhW3sqicqQvd7LfReAsI7nD73,196866.70000001788,stroop,,False,neutral,"{'text': '학교', 'letterColor': 'blue', 'userColor': 'blue'}",False,693.6999999880791,197560.40000000596,3.0
Qv0jhW3sqicqQvd7LfReAsI7nD73,True,4,,yellow,incongruent,초록,yellow,Qv0jhW3sqicqQvd7LfReAsI7nD73,198173.30000001192,stroop,,False,incongruent,"{'text': '초록', 'letterColor': 'yellow', 'userColor': 'yellow'}",False,974.6999999880791,199148.0,4.0
Qv0jhW3sqicqQvd7LfReAsI7nD73,True,5,,red,incongruent,초록,red,Qv0jhW3sqicqQvd7LfReAsI7nD73,199772.40000000596,stroop,,False,incongruent,"{'text': '초록', 'letterColor': 'red', 'userColor': 'red'}",False,653.5999999940395,200426.0,5.0
Qv0jhW3sqicqQvd7LfReAsI7nD73,True,6,,red,congruent,빨강,red,Qv0jhW3sqicqQvd7LfReAsI7nD73,201051.20000001788,stroop,,False,congruent,"{'text': '빨강', 'letterColor': 'red', 'userColor': 'red'}",False,655.0,201706.20000001788,6.0
Qv0jhW3sqicqQvd7LfReAsI7nD73,True,7,,blue,neutral,가방,blue,Qv0jhW3sqicqQvd7LfReAsI7nD73,202333.09999999404,stroop,,False,neutral,"{'text': '가방', 'letterColor': 'blue', 'userColor': 'blue'}",False,921.5,203254.59999999404,7.0
Qv0jhW3sqicqQvd7LfReAsI7nD73,True,8,,yellow,incongruent,빨강,yellow,Qv0jhW3sqicqQvd7LfReAsI7nD73,203865.20000001788,stroop,,False,incongruent,"{'text': '빨강', 'letterColor': 'yellow', 'userColor': 'yellow'}",False,1149.2999999821186,205014.5,8.0
Qv0jhW3sqicqQvd7LfReAsI7nD73,True,9,,red,congruent,빨강,red,Qv0jhW3sqicqQvd7LfReAsI7nD73,205649.80000001192,stroop,,False,congruent,"{'text': '빨강', 'letterColor': 'red', 'userColor': 'red'}",False,653.5999999940395,206303.40000000596,9.0
Qv0jhW3sqicqQvd7LfReAsI7nD73,True,10,,red,incongruent,파랑,red,Qv0jhW3sqicqQvd7LfReAsI7nD73,206934.59999999404,stroop,,False,incongruent,"{'text': '파랑', 'letterColor': 'red', 'userColor': 'red'}",False,588.4000000059605,207523.0,10.0
Qv0jhW3sqicqQvd7LfReAsI7nD73,True,11,,red,incongruent,노랑,red,Qv0jhW3sqicqQvd7LfReAsI7nD73,208150.59999999404,stroop,,False,incongruent,"{'text': '노랑', 'letterColor': 'red', 'userColor': 'red'}",False,573.6000000238419,208724.20000001788,11.0
Qv0jhW3sqicqQvd7LfReAsI7nD73,True,12,,red,incongruent,파랑,red,Qv0jhW3sqicqQvd7LfReAsI7nD73,209350.5,stroop,,False,incongruent,"{'text': '파랑', 'letterColor': 'red', 'userColor': 'red'}",False,661.9000000059605,210012.40000000596,12.0
Qv0jhW3sqicqQvd7LfReAsI7nD73,True,13,,green,incongruent,빨강,green,Qv0jhW3sqicqQvd7LfReAsI7nD73,210667.70000001788,stroop,,False,incongruent,"{'text': '빨강', 'letterColor': 'green', 'userColor': 'green'}",False,853.1999999880791,211520.90000000596,13.0
Qv0jhW3sqicqQvd7LfReAsI7nD73,True,14,,yellow,neutral,기차,yellow,Qv0jhW3sqicqQvd7LfReAsI7nD73,212151.70000001788,stroop,,False,neutral,"{'text': '기차', 'letterColor': 'yellow', 'userColor': 'yellow'}",False,667.0999999940395,212818.80000001192,14.0
Qv0jhW3sqicqQvd7LfReAsI7nD73,True,15,,blue,congruent,파랑,blue,Qv0jhW3sqicqQvd7LfReAsI7nD73,213441.40000000596,stroop,,False,congruent,"{'text': '파랑', 'letterColor': 'blue', 'userColor': 'blue'}",False,513.0,213954.40000000596,15.0
Qv0jhW3sqicqQvd7LfReAsI7nD73,True,16,,green,incongruent,빨강,green,Qv0jhW3sqicqQvd7LfReAsI7nD73,214573.40000000596,stroop,,False,incongruent,"{'text': '빨강', 'letterColor': 'green', 'userColor': 'green'}",False,816.0999999940395,215389.5,16.0
Qv0jhW3sqicqQvd7LfReAsI7nD73,True,17,,green,congruent,초록,green,Qv0jhW3sqicqQvd7LfReAsI7nD73,216008.40000000596,stroop,,False,congruent,"{'text': '초록', 'letterColor': 'green', 'userColor': 'green'}",False,522.5999999940395,216531.0,17.0
Qv0jhW3sqicqQvd7LfReAsI7nD73,True,18,,blue,congruent,파랑,blue,Qv0jhW3sqicqQvd7LfReAsI7nD73,217174.20000001788,stroop,,False,congruent,"{'text': '파랑', 'letterColor': 'blue', 'userColor': 'blue'}",False,556.1999999880791,217730.40000000596,18.0
Qv0jhW3sqicqQvd7LfReAsI7nD73,True,19,,red,neutral,기차,red,Qv0jhW3sqicqQvd7LfReAsI7nD73,218340.09999999404,stroop,,False,neutral,"{'text': '기차', 'letterColor': 'red', 'userColor': 'red'}",False,646.7000000178814,218986.80000001192,19.0
Qv0jhW3sqicqQvd7LfReAsI7nD73,True,20,,red,congruent,빨강,red,Qv0jhW3sqicqQvd7LfReAsI7nD73,219607.30000001192,stroop,,False,congruent,"{'text': '빨강', 'letterColor': 'red', 'userColor': 'red'}",False,657.0999999940395,220264.40000000596,20.0
Qv0jhW3sqicqQvd7LfReAsI7nD73,True,21,,green,neutral,기차,green,Qv0jhW3sqicqQvd7LfReAsI7nD73,220890.30000001192,stroop,,False,neutral,"{'text': '기차', 'letterColor': 'green', 'userColor': 'green'}",False,810.0999999940395,221700.40000000596,21.0
Qv0jhW3sqicqQvd7LfReAsI7nD73,True,22,,blue,incongruent,초록,blue,Qv0jhW3sqicqQvd7LfReAsI7nD73,222324.09999999404,stroop,,False,incongruent,"{'text': '초록', 'letterColor': 'blue', 'userColor': 'blue'}",False,582.2000000178814,222906.30000001192,22.0
Qv0jhW3sqicqQvd7LfReAsI7nD73,True,23,,yellow,neutral,가방,yellow,Qv0jhW3sqicqQvd7LfReAsI7nD73,223524.59999999404,stroop,,False,neutral,"{'text': '가방', 'letterColor': 'yellow', 'userColor': 'yellow'}",False,782.8000000119209,224307.40000000596,23.0
Qv0jhW3sqicqQvd7LfReAsI7nD73,True,24,,yellow,neutral,학교,yellow,Qv0jhW3sqicqQvd7LfReAsI7nD73,224919.70000001788,stroop,,False,neutral,"{'text': '학교', 'letterColor': 'yellow', 'userColor': 'yellow'}",False,689.5999999940395,225609.30000001192,24.0
Qv0jhW3sqicqQvd7LfReAsI7nD73,True,25,,red,neutral,기차,red,Qv0jhW3sqicqQvd7LfReAsI7nD73,226241.30000001192,stroop,,False,neutral,"{'text': '기차', 'letterColor': 'red', 'userColor': 'red'}",False,611.5999999940395,226852.90000000596,25.0
Qv0jhW3sqicqQvd7LfReAsI7nD73,True,26,,blue,incongruent,노랑,blue,Qv0jhW3sqicqQvd7LfReAsI7nD73,227473.80000001192,stroop,,False,incongruent,"{'text': '노랑', 'letterColor': 'blue', 'userColor': 'blue'}",False,614.5,228088.30000001192,26.0
Qv0jhW3sqicqQvd7LfReAsI7nD73,True,27,,blue,congruent,파랑,blue,Qv0jhW3sqicqQvd7LfReAsI7nD73,228708.30000001192,stroop,,False,congruent,"{'text': '파랑', 'letterColor': 'blue', 'userColor': 'blue'}",False,630.0999999940395,229338.40000000596,27.0
Qv0jhW3sqicqQvd7LfReAsI7nD73,True,28,,red,congruent,빨강,red,Qv0jhW3sqicqQvd7LfReAsI7nD73,229956.30000001192,stroop,,False,congruent,"{'text': '빨강', 'letterColor': 'red', 'userColor': 'red'}",False,629.9000000059605,230586.20000001788,28.0
Qv0jhW3sqicqQvd7LfReAsI7nD73,True,29,,green,neutral,기차,green,Qv0jhW3sqicqQvd7LfReAsI7nD73,231206.70000001788,stroop,,False,neutral,"{'text': '기차', 'letterColor': 'green', 'userColor': 'green'}",False,543.6999999880791,231750.40000000596,29.0
Qv0jhW3sqicqQvd7LfReAsI7nD73,True,30,,yellow,congruent,노랑,yellow,Qv0jhW3sqicqQvd7LfReAsI7nD73,232374.0,stroop,,False,congruent,"{'text': '노랑', 'letterColor': 'yellow', 'userColor': 'yellow'}",False,698.2000000178814,233072.20000001788,30.0
Qv0jhW3sqicqQvd7LfReAsI7nD73,True,31,,red,neutral,학교,red,Qv0jhW3sqicqQvd7LfReAsI7nD73,233706.40000000596,stroop,,False,neutral,"{'text': '학교', 'letterColor': 'red', 'userColor': 'red'}",False,641.4000000059605,234347.80000001192,31.0
Qv0jhW3sqicqQvd7LfReAsI7nD73,True,32,,blue,incongruent,노랑,blue,Qv0jhW3sqicqQvd7LfReAsI7nD73,234974.5,stroop,,False,incongruent,"{'text': '노랑', 'letterColor': 'blue', 'userColor': 'blue'}",False,1095.5,236070.0,32.0
Qv0jhW3sqicqQvd7LfReAsI7nD73,True,33,,blue,congruent,파랑,blue,Qv0jhW3sqicqQvd7LfReAsI7nD73,236707.20000001788,stroop,,False,congruent,"{'text': '파랑', 'letterColor': 'blue', 'userColor': 'blue'}",False,515.0999999940395,237222.30000001192,33.0
Qv0jhW3sqicqQvd7LfReAsI7nD73,True,34,,green,incongruent,노랑,green,Qv0jhW3sqicqQvd7LfReAsI7nD73,237857.30000001192,stroop,,False,incongruent,"{'text': '노랑', 'letterColor': 'green', 'userColor': 'green'}",False,1232.9000000059605,239090.20000001788,34.0
Qv0jhW3sqicqQvd7LfReAsI7nD73,True,35,,green,neutral,학교,green,Qv0jhW3sqicqQvd7LfReAsI7nD73,239726.40000000596,stroop,,False,neutral,"{'text': '학교', 'letterColor': 'green', 'userColor': 'green'}",False,653.8000000119209,240380.20000001788,35.0
Qv0jhW3sqicqQvd7LfReAsI7nD73,True,36,,red,neutral,가방,red,Qv0jhW3sqicqQvd7LfReAsI7nD73,240990.90000000596,stroop,,False,neutral,"{'text': '가방', 'letterColor': 'red', 'userColor': 'red'}",False,645.6999999880791,241636.59999999404,36.0
Qv0jhW3sqicqQvd7LfReAsI7nD73,True,37,,blue,congruent,파랑,blue,Qv0jhW3sqicqQvd7LfReAsI7nD73,242258.30000001192,stroop,,False,congruent,"{'text': '파랑', 'letterColor': 'blue', 'userColor': 'blue'}",False,628.2999999821186,242886.59999999404,37.0
Qv0jhW3sqicqQvd7LfReAsI7nD73,True,38,,green,neutral,기차,green,Qv0jhW3sqicqQvd7LfReAsI7nD73,243518.80000001192,stroop,,False,neutral,"{'text': '기차', 'letterColor': 'green', 'userColor': 'green'}",False,970.0,244488.80000001192,38.0
Qv0jhW3sqicqQvd7LfReAsI7nD73,True,39,,green,neutral,학교,green,Qv0jhW3sqicqQvd7LfReAsI7nD73,245108.80000001192,stroop,,False,neutral,"{'text': '학교', 'letterColor': 'green', 'userColor': 'green'}",False,566.5999999940395,245675.40000000596,39.0
Qv0jhW3sqicqQvd7LfReAsI7nD73,True,40,,blue,incongruent,초록,blue,Qv0jhW3sqicqQvd7LfReAsI7nD73,246301.90000000596,stroop,,False,incongruent,"{'text': '초록', 'letterColor': 'blue', 'userColor': 'blue'}",False,689.5,246991.40000000596,40.0
Qv0jhW3sqicqQvd7LfReAsI7nD73,True,41,,green,congruent,초록,green,Qv0jhW3sqicqQvd7LfReAsI7nD73,247605.80000001192,stroop,,False,congruent,"{'text': '초록', 'letterColor': 'green', 'userColor': 'green'}",False,742.5,248348.30000001192,41.0
Qv0jhW3sqicqQvd7LfReAsI7nD73,True,42,,red,incongruent,노랑,red,Qv0jhW3sqicqQvd7LfReAsI7nD73,248975.0,stroop,,False,incongruent,"{'text': '노랑', 'letterColor': 'red', 'userColor': 'red'}",False,677.5,249652.5,42.0
Qv0jhW3sqicqQvd7LfReAsI7nD73,True,43,,green,congruent,초록,green,Qv0jhW3sqicqQvd7LfReAsI7nD73,250275.70000001788,stroop,,False,congruent,"{'text': '초록', 'letterColor': 'green', 'userColor': 'green'}",False,603.0999999940395,250878.80000001192,43.0
Qv0jhW3sqicqQvd7LfReAsI7nD73,True,44,,yellow,neutral,기차,yellow,Qv0jhW3sqicqQvd7LfReAsI7nD73,251487.5,stroop,,False,neutral,"{'text': '기차', 'letterColor': 'yellow', 'userColor': 'yellow'}",False,690.8000000119209,252178.30000001192,44.0
Qv0jhW3sqicqQvd7LfReAsI7nD73,True,45,,green,neutral,가방,green,Qv0jhW3sqicqQvd7LfReAsI7nD73,252802.0,stroop,,False,neutral,"{'text': '가방', 'letterColor': 'green', 'userColor': 'green'}",False,728.7000000178814,253530.70000001788,45.0
Qv0jhW3sqicqQvd7LfReAsI7nD73,True,46,,blue,incongruent,빨강,blue,Qv0jhW3sqicqQvd7LfReAsI7nD73,254141.20000001788,stroop,,False,incongruent,"{'text': '빨강', 'letterColor': 'blue', 'userColor': 'blue'}",False,1563.0,255704.20000001788,46.0
Qv0jhW3sqicqQvd7LfReAsI7nD73,True,47,,red,incongruent,파랑,red,Qv0jhW3sqicqQvd7LfReAsI7nD73,256327.09999999404,stroop,,False,incongruent,"{'text': '파랑', 'letterColor': 'red', 'userColor': 'red'}",False,663.5,256990.59999999404,47.0
Qv0jhW3sqicqQvd7LfReAsI7nD73,True,48,,blue,incongruent,빨강,blue,Qv0jhW3sqicqQvd7LfReAsI7nD73,257616.09999999404,stroop,,False,incongruent,"{'text': '빨강', 'letterColor': 'blue', 'userColor': 'blue'}",False,475.5,258091.59999999404,48.0
Qv0jhW3sqicqQvd7LfReAsI7nD73,True,49,,green,incongruent,노랑,green,Qv0jhW3sqicqQvd7LfReAsI7nD73,258707.20000001788,stroop,,False,incongruent,"{'text': '노랑', 'letterColor': 'green', 'userColor': 'green'}",False,532.5,259239.70000001788,49.0
Qv0jhW3sqicqQvd7LfReAsI7nD73,True,50,,red,neutral,가방,red,Qv0jhW3sqicqQvd7LfReAsI7nD73,259876.20000001788,stroop,,False,neutral,"{'text': '가방', 'letterColor': 'red', 'userColor': 'red'}",False,690.5999999940395,260566.80000001192,50.0
Qv0jhW3sqicqQvd7LfReAsI7nD73,True,51,,blue,neutral,학교,blue,Qv0jhW3sqicqQvd7LfReAsI7nD73,261209.30000001192,stroop,,False,neutral,"{'text': '학교', 'letterColor': 'blue', 'userColor': 'blue'}",False,390.5,261599.80000001192,51.0
Qv0jhW3sqicqQvd7LfReAsI7nD73,True,52,,blue,incongruent,빨강,blue,Qv0jhW3sqicqQvd7LfReAsI7nD73,262208.09999999404,stroop,,False,incongruent,"{'text': '빨강', 'letterColor': 'blue', 'userColor': 'blue'}",False,665.7000000178814,262873.8000000119,52.0
Qv0jhW3sqicqQvd7LfReAsI7nD73,True,53,,red,congruent,빨강,red,Qv0jhW3sqicqQvd7LfReAsI7nD73,263510.3000000119,stroop,,False,congruent,"{'text': '빨강', 'letterColor': 'red', 'userColor': 'red'}",False,556.0999999940395,264066.40000000596,53.0
Qv0jhW3sqicqQvd7LfReAsI7nD73,True,54,,blue,neutral,기차,blue,Qv0jhW3sqicqQvd7LfReAsI7nD73,264702.09999999404,stroop,,False,neutral,"{'text': '기차', 'letterColor': 'blue', 'userColor': 'blue'}",False,472.40000000596046,265174.5,54.0
Qv0jhW3sqicqQvd7LfReAsI7nD73,True,55,,yellow,congruent,노랑,yellow,Qv0jhW3sqicqQvd7LfReAsI7nD73,265797.3000000119,stroop,,False,congruent,"{'text': '노랑', 'letterColor': 'yellow', 'userColor': 'yellow'}",False,714.0999999940395,266511.40000000596,55.0
Qv0jhW3sqicqQvd7LfReAsI7nD73,True,56,,red,congruent,빨강,red,Qv0jhW3sqicqQvd7LfReAsI7nD73,267142.5,stroop,,False,congruent,"{'text': '빨강', 'letterColor': 'red', 'userColor': 'red'}",False,571.8000000119209,267714.3000000119,56.0
Qv0jhW3sqicqQvd7LfReAsI7nD73,True,57,,yellow,congruent,노랑,yellow,Qv0jhW3sqicqQvd7LfReAsI7nD73,268325.5,stroop,,False,congruent,"{'text': '노랑', 'letterColor': 'yellow', 'userColor': 'yellow'}",False,747.5999999940395,269073.09999999404,57.0
Qv0jhW3sqicqQvd7LfReAsI7nD73,True,58,,blue,neutral,학교,blue,Qv0jhW3sqicqQvd7LfReAsI7nD73,269709.2000000179,stroop,,False,neutral,"{'text': '학교', 'letterColor': 'blue', 'userColor': 'blue'}",False,647.5,270356.7000000179,58.0
Qv0jhW3sqicqQvd7LfReAsI7nD73,True,59,,green,congruent,초록,green,Qv0jhW3sqicqQvd7LfReAsI7nD73,270993.2000000179,stroop,,False,congruent,"{'text': '초록', 'letterColor': 'green', 'userColor': 'green'}",False,575.2999999821186,271568.5,59.0
Qv0jhW3sqicqQvd7LfReAsI7nD73,True,60,,yellow,incongruent,빨강,yellow,Qv0jhW3sqicqQvd7LfReAsI7nD73,272191.8000000119,stroop,,False,incongruent,"{'text': '빨강', 'letterColor': 'yellow', 'userColor': 'yellow'}",False,665.0999999940395,272856.90000000596,60.0
Qv0jhW3sqicqQvd7LfReAsI7nD73,True,61,,yellow,congruent,노랑,yellow,Qv0jhW3sqicqQvd7LfReAsI7nD73,273486.7000000179,stroop,,False,congruent,"{'text': '노랑', 'letterColor': 'yellow', 'userColor': 'yellow'}",False,536.8999999761581,274023.59999999404,61.0
Qv0jhW3sqicqQvd7LfReAsI7nD73,True,62,,blue,incongruent,초록,blue,Qv0jhW3sqicqQvd7LfReAsI7nD73,274647.90000000596,stroop,,False,incongruent,"{'text': '초록', 'letterColor': 'blue', 'userColor': 'blue'}",False,552.4000000059605,275200.3000000119,62.0
Qv0jhW3sqicqQvd7LfReAsI7nD73,True,63,,yellow,incongruent,초록,yellow,Qv0jhW3sqicqQvd7LfReAsI7nD73,275835.7000000179,stroop,,False,incongruent,"{'text': '초록', 'letterColor': 'yellow', 'userColor': 'yellow'}",False,1091.2999999821186,276927.0,63.0
Qv0jhW3sqicqQvd7LfReAsI7nD73,True,64,,red,congruent,빨강,red,Qv0jhW3sqicqQvd7LfReAsI7nD73,277542.7000000179,stroop,,False,congruent,"{'text': '빨강', 'letterColor': 'red', 'userColor': 'red'}",False,713.7999999821186,278256.5,64.0
Qv0jhW3sqicqQvd7LfReAsI7nD73,True,65,,red,neutral,기차,red,Qv0jhW3sqicqQvd7LfReAsI7nD73,278876.2000000179,stroop,,False,neutral,"{'text': '기차', 'letterColor': 'red', 'userColor': 'red'}",False,679.3999999761581,279555.59999999404,65.0
Qv0jhW3sqicqQvd7LfReAsI7nD73,True,66,,green,incongruent,노랑,green,Qv0jhW3sqicqQvd7LfReAsI7nD73,280177.09999999404,stroop,,False,incongruent,"{'text': '노랑', 'letterColor': 'green', 'userColor': 'green'}",False,657.3000000119209,280834.40000000596,66.0
Qv0jhW3sqicqQvd7LfReAsI7nD73,True,67,,red,incongruent,초록,red,Qv0jhW3sqicqQvd7LfReAsI7nD73,281461.0,stroop,,False,incongruent,"{'text': '초록', 'letterColor': 'red', 'userColor': 'red'}",False,756.4000000059605,282217.40000000596,67.0
Qv0jhW3sqicqQvd7LfReAsI7nD73,True,68,,red,neutral,학교,red,Qv0jhW3sqicqQvd7LfReAsI7nD73,282843.09999999404,stroop,,False,neutral,"{'text': '학교', 'letterColor': 'red', 'userColor': 'red'}",False,574.1000000238419,283417.2000000179,68.0
Qv0jhW3sqicqQvd7LfReAsI7nD73,True,69,,green,congruent,초록,green,Qv0jhW3sqicqQvd7LfReAsI7nD73,284044.2000000179,stroop,,False,congruent,"{'text': '초록', 'letterColor': 'green', 'userColor': 'green'}",False,562.7999999821186,284607.0,69.0
Qv0jhW3sqicqQvd7LfReAsI7nD73,True,70,,red,incongruent,초록,red,Qv0jhW3sqicqQvd7LfReAsI7nD73,285227.09999999404,stroop,,False,incongruent,"{'text': '초록', 'letterColor': 'red', 'userColor': 'red'}",False,587.9000000059605,285815.0,70.0
Qv0jhW3sqicqQvd7LfReAsI7nD73,True,71,,yellow,congruent,노랑,yellow,Qv0jhW3sqicqQvd7LfReAsI7nD73,286442.40000000596,stroop,,False,congruent,"{'text': '노랑', 'letterColor': 'yellow', 'userColor': 'yellow'}",False,644.5999999940395,287087.0,71.0
Qv0jhW3sqicqQvd7LfReAsI7nD73,True,72,,blue,neutral,가방,blue,Qv0jhW3sqicqQvd7LfReAsI7nD73,287712.3000000119,stroop,,False,neutral,"{'text': '가방', 'letterColor': 'blue', 'userColor': 'blue'}",False,614.5,288326.8000000119,72.0
Qv0jhW3sqicqQvd7LfReAsI7nD73,True,73,,blue,congruent,파랑,blue,Qv0jhW3sqicqQvd7LfReAsI7nD73,288953.7000000179,stroop,,False,congruent,"{'text': '파랑', 'letterColor': 'blue', 'userColor': 'blue'}",False,513.0,289466.7000000179,73.0
Qv0jhW3sqicqQvd7LfReAsI7nD73,True,74,,yellow,neutral,기차,yellow,Qv0jhW3sqicqQvd7LfReAsI7nD73,290094.3000000119,stroop,,False,neutral,"{'text': '기차', 'letterColor': 'yellow', 'userColor': 'yellow'}",False,824.6999999880791,290919.0,74.0
Qv0jhW3sqicqQvd7LfReAsI7nD73,True,75,,green,congruent,초록,green,Qv0jhW3sqicqQvd7LfReAsI7nD73,291553.59999999404,stroop,,False,congruent,"{'text': '초록', 'letterColor': 'green', 'userColor': 'green'}",False,529.3000000119209,292082.90000000596,75.0
Qv0jhW3sqicqQvd7LfReAsI7nD73,True,76,,blue,congruent,파랑,blue,Qv0jhW3sqicqQvd7LfReAsI7nD73,292692.90000000596,stroop,,False,congruent,"{'text': '파랑', 'letterColor': 'blue', 'userColor': 'blue'}",False,647.0999999940395,293340.0,76.0
Qv0jhW3sqicqQvd7LfReAsI7nD73,True,77,,yellow,congruent,노랑,yellow,Qv0jhW3sqicqQvd7LfReAsI7nD73,293960.40000000596,stroop,,False,congruent,"{'text': '노랑', 'letterColor': 'yellow', 'userColor': 'yellow'}",False,938.3000000119209,294898.7000000179,77.0
Qv0jhW3sqicqQvd7LfReAsI7nD73,True,78,,yellow,incongruent,빨강,yellow,Qv0jhW3sqicqQvd7LfReAsI7nD73,295512.3000000119,stroop,,False,incongruent,"{'text': '빨강', 'letterColor': 'yellow', 'userColor': 'yellow'}",False,811.1999999880791,296323.5,78.0
Qv0jhW3sqicqQvd7LfReAsI7nD73,True,79,,green,incongruent,파랑,green,Qv0jhW3sqicqQvd7LfReAsI7nD73,296942.90000000596,stroop,,False,incongruent,"{'text': '파랑', 'letterColor': 'green', 'userColor': 'green'}",False,808.1999999880791,297751.09999999404,79.0
Qv0jhW3sqicqQvd7LfReAsI7nD73,True,80,,red,neutral,가방,red,Qv0jhW3sqicqQvd7LfReAsI7nD73,298369.3000000119,stroop,,False,neutral,"{'text': '가방', 'letterColor': 'red', 'userColor': 'red'}",False,644.0,299013.3000000119,80.0
Qv0jhW3sqicqQvd7LfReAsI7nD73,True,81,,green,congruent,초록,green,Qv0jhW3sqicqQvd7LfReAsI7nD73,299627.0,stroop,,False,congruent,"{'text': '초록', 'letterColor': 'green', 'userColor': 'green'}",False,419.90000000596046,300046.90000000596,81.0
Qv0jhW3sqicqQvd7LfReAsI7nD73,True,82,,red,congruent,빨강,red,Qv0jhW3sqicqQvd7LfReAsI7nD73,300695.2000000179,stroop,,False,congruent,"{'text': '빨강', 'letterColor': 'red', 'userColor': 'red'}",False,541.2999999821186,301236.5,82.0
Qv0jhW3sqicqQvd7LfReAsI7nD73,True,83,,green,incongruent,빨강,green,Qv0jhW3sqicqQvd7LfReAsI7nD73,301858.40000000596,stroop,,False,incongruent,"{'text': '빨강', 'letterColor': 'green', 'userColor': 'green'}",False,864.3000000119209,302722.7000000179,83.0
Qv0jhW3sqicqQvd7LfReAsI7nD73,True,84,,yellow,neutral,학교,yellow,Qv0jhW3sqicqQvd7LfReAsI7nD73,303362.09999999404,stroop,,False,neutral,"{'text': '학교', 'letterColor': 'yellow', 'userColor': 'yellow'}",False,802.5,304164.59999999404,84.0
Qv0jhW3sqicqQvd7LfReAsI7nD73,True,85,,red,incongruent,노랑,red,Qv0jhW3sqicqQvd7LfReAsI7nD73,304790.3000000119,stroop,,False,incongruent,"{'text': '노랑', 'letterColor': 'red', 'userColor': 'red'}",False,584.6999999880791,305375.0,85.0
Qv0jhW3sqicqQvd7LfReAsI7nD73,True,86,,blue,neutral,가방,blue,Qv0jhW3sqicqQvd7LfReAsI7nD73,305991.09999999404,stroop,,False,neutral,"{'text': '가방', 'letterColor': 'blue', 'userColor': 'blue'}",False,415.80000001192093,306406.90000000596,86.0
Qv0jhW3sqicqQvd7LfReAsI7nD73,True,87,,green,incongruent,파랑,green,Qv0jhW3sqicqQvd7LfReAsI7nD73,307029.09999999404,stroop,,False,incongruent,"{'text': '파랑', 'letterColor': 'green', 'userColor': 'green'}",False,538.8000000119209,307567.90000000596,87.0
Qv0jhW3sqicqQvd7LfReAsI7nD73,True,88,,yellow,incongruent,파랑,yellow,Qv0jhW3sqicqQvd7LfReAsI7nD73,308198.7000000179,stroop,,False,incongruent,"{'text': '파랑', 'letterColor': 'yellow', 'userColor': 'yellow'}",False,584.1999999880791,308782.90000000596,88.0
Qv0jhW3sqicqQvd7LfReAsI7nD73,True,89,,yellow,congruent,노랑,yellow,Qv0jhW3sqicqQvd7LfReAsI7nD73,309395.90000000596,stroop,,False,congruent,"{'text': '노랑', 'letterColor': 'yellow', 'userColor': 'yellow'}",False,766.5999999940395,310162.5,89.0
Qv0jhW3sqicqQvd7LfReAsI7nD73,True,90,,green,congruent,초록,green,Qv0jhW3sqicqQvd7LfReAsI7nD73,310776.0,stroop,,False,congruent,"{'text': '초록', 'letterColor': 'green', 'userColor': 'green'}",False,485.2000000178814,311261.2000000179,90.0
Qv0jhW3sqicqQvd7LfReAsI7nD73,True,91,,green,neutral,가방,green,Qv0jhW3sqicqQvd7LfReAsI7nD73,311876.0,stroop,,False,neutral,"{'text': '가방', 'letterColor': 'green', 'userColor': 'green'}",False,530.5,312406.5,91.0
Qv0jhW3sqicqQvd7LfReAsI7nD73,True,92,,blue,incongruent,노랑,blue,Qv0jhW3sqicqQvd7LfReAsI7nD73,313029.40000000596,stroop,,False,incongruent,"{'text': '노랑', 'letterColor': 'blue', 'userColor': 'blue'}",False,519.1999999880791,313548.59999999404,92.0
Qv0jhW3sqicqQvd7LfReAsI7nD73,True,93,,blue,neutral,기차,blue,Qv0jhW3sqicqQvd7LfReAsI7nD73,314178.0,stroop,,False,neutral,"{'text': '기차', 'letterColor': 'blue', 'userColor': 'blue'}",False,382.80000001192093,314560.8000000119,93.0
Qv0jhW3sqicqQvd7LfReAsI7nD73,True,94,,blue,congruent,파랑,blue,Qv0jhW3sqicqQvd7LfReAsI7nD73,315179.09999999404,stroop,,False,congruent,"{'text': '파랑', 'letterColor': 'blue', 'userColor': 'blue'}",False,397.60000002384186,315576.7000000179,94.0
Qv0jhW3sqicqQvd7LfReAsI7nD73,True,95,,red,neutral,학교,red,Qv0jhW3sqicqQvd7LfReAsI7nD73,316196.3000000119,stroop,,False,neutral,"{'text': '학교', 'letterColor': 'red', 'userColor': 'red'}",False,580.7999999821186,316777.09999999404,95.0
Qv0jhW3sqicqQvd7LfReAsI7nD73,True,96,,yellow,incongruent,파랑,yellow,Qv0jhW3sqicqQvd7LfReAsI7nD73,317396.09999999404,stroop,,False,incongruent,"{'text': '파랑', 'letterColor': 'yellow', 'userColor': 'yellow'}",False,570.8000000119209,317966.90000000596,96.0
Qv0jhW3sqicqQvd7LfReAsI7nD73,True,97,,yellow,neutral,가방,yellow,Qv0jhW3sqicqQvd7LfReAsI7nD73,318595.2000000179,stroop,,False,neutral,"{'text': '가방', 'letterColor': 'yellow', 'userColor': 'yellow'}",False,440.59999999403954,319035.8000000119,97.0
Qv0jhW3sqicqQvd7LfReAsI7nD73,True,98,,green,neutral,학교,green,Qv0jhW3sqicqQvd7LfReAsI7nD73,319663.3000000119,stroop,,False,neutral,"{'text': '학교', 'letterColor': 'green', 'userColor': 'green'}",False,444.2999999821186,320107.59999999404,98.0
Qv0jhW3sqicqQvd7LfReAsI7nD73,True,99,,blue,neutral,기차,blue,Qv0jhW3sqicqQvd7LfReAsI7nD73,320728.5,stroop,,False,neutral,"{'text': '기차', 'letterColor': 'blue', 'userColor': 'blue'}",False,548.4000000059605,321276.90000000596,99.0
Qv0jhW3sqicqQvd7LfReAsI7nD73,True,100,,blue,congruent,파랑,blue,Qv0jhW3sqicqQvd7LfReAsI7nD73,321896.40000000596,stroop,,False,congruent,"{'text': '파랑', 'letterColor': 'blue', 'userColor': 'blue'}",False,543.5,322439.90000000596,100.0
Qv0jhW3sqicqQvd7LfReAsI7nD73,True,101,,yellow,congruent,노랑,yellow,Qv0jhW3sqicqQvd7LfReAsI7nD73,323073.09999999404,stroop,,False,congruent,"{'text': '노랑', 'letterColor': 'yellow', 'userColor': 'yellow'}",False,571.2000000178814,323644.3000000119,101.0
Qv0jhW3sqicqQvd7LfReAsI7nD73,True,102,,yellow,incongruent,초록,yellow,Qv0jhW3sqicqQvd7LfReAsI7nD73,324262.0,stroop,,False,incongruent,"{'text': '초록', 'letterColor': 'yellow', 'userColor': 'yellow'}",False,473.0,324735.0,102.0
Qv0jhW3sqicqQvd7LfReAsI7nD73,True,103,,green,congruent,초록,green,Qv0jhW3sqicqQvd7LfReAsI7nD73,325363.3000000119,stroop,,False,congruent,"{'text': '초록', 'letterColor': 'green', 'userColor': 'green'}",False,631.5999999940395,325994.90000000596,103.0
Qv0jhW3sqicqQvd7LfReAsI7nD73,True,104,,yellow,congruent,노랑,yellow,Qv0jhW3sqicqQvd7LfReAsI7nD73,326630.2000000179,stroop,,False,congruent,"{'text': '노랑', 'letterColor': 'yellow', 'userColor': 'yellow'}",False,584.0999999940395,327214.3000000119,104.0
Qv0jhW3sqicqQvd7LfReAsI7nD73,True,105,,yellow,neutral,가방,yellow,Qv0jhW3sqicqQvd7LfReAsI7nD73,327846.2000000179,stroop,,False,neutral,"{'text': '가방', 'letterColor': 'yellow', 'userColor': 'yellow'}",False,495.09999999403954,328341.3000000119,105.0
Qv0jhW3sqicqQvd7LfReAsI7nD73,True,106,,yellow,neutral,학교,yellow,Qv0jhW3sqicqQvd7LfReAsI7nD73,328962.5,stroop,,False,neutral,"{'text': '학교', 'letterColor': 'yellow', 'userColor': 'yellow'}",False,512.5999999940395,329475.09999999404,106.0
Qv0jhW3sqicqQvd7LfReAsI7nD73,True,107,,green,incongruent,파랑,green,Qv0jhW3sqicqQvd7LfReAsI7nD73,330103.40000000596,stroop,,False,incongruent,"{'text': '파랑', 'letterColor': 'green', 'userColor': 'green'}",False,562.9000000059605,330666.3000000119,107.0
ORvIk1xRWIQmKuLVe6GXNouvAXx2,True,0,,yellow,incongruent,초록,yellow,ORvIk1xRWIQmKuLVe6GXNouvAXx2,1007835.1000000238,stroop,,False,incongruent,"{'text': '초록', 'letterColor': 'yellow', 'userColor': 'yellow'}",False,912.5,1008747.6000000238,0.0
ORvIk1xRWIQmKuLVe6GXNouvAXx2,True,1,,blue,congruent,파랑,blue,ORvIk1xRWIQmKuLVe6GXNouvAXx2,1009366.4000000954,stroop,,False,congruent,"{'text': '파랑', 'letterColor': 'blue', 'userColor': 'blue'}",False,988.3999999761581,1010354.8000000715,1.0
ORvIk1xRWIQmKuLVe6GXNouvAXx2,True,2,,blue,incongruent,빨강,blue,ORvIk1xRWIQmKuLVe6GXNouvAXx2,1010969.6000000238,stroop,,False,incongruent,"{'text': '빨강', 'letterColor': 'blue', 'userColor': 'blue'}",False,920.7000000476837,1011890.3000000715,2.0
ORvIk1xRWIQmKuLVe6GXNouvAXx2,True,3,,red,congruent,빨강,red,ORvIk1xRWIQmKuLVe6GXNouvAXx2,1012515.1000000238,stroop,,False,congruent,"{'text': '빨강', 'letterColor': 'red', 'userColor': 'red'}",False,1100.6000000238419,1013615.7000000477,3.0
ORvIk1xRWIQmKuLVe6GXNouvAXx2,True,4,,green,neutral,기차,green,ORvIk1xRWIQmKuLVe6GXNouvAXx2,1014248.4000000954,stroop,,False,neutral,"{'text': '기차', 'letterColor': 'green', 'userColor': 'green'}",False,1351.0,1015599.4000000954,4.0
ORvIk1xRWIQmKuLVe6GXNouvAXx2,True,5,,green,neutral,가방,green,ORvIk1xRWIQmKuLVe6GXNouvAXx2,1016221.0,stroop,,False,neutral,"{'text': '가방', 'letterColor': 'green', 'userColor': 'green'}",False,845.7000000476837,1017066.7000000477,5.0
ORvIk1xRWIQmKuLVe6GXNouvAXx2,True,6,,blue,incongruent,초록,blue,ORvIk1xRWIQmKuLVe6GXNouvAXx2,1017686.6000000238,stroop,,False,incongruent,"{'text': '초록', 'letterColor': 'blue', 'userColor': 'blue'}",False,1194.8999999761581,1018881.5,6.0
ORvIk1xRWIQmKuLVe6GXNouvAXx2,True,7,,blue,incongruent,노랑,blue,ORvIk1xRWIQmKuLVe6GXNouvAXx2,1019499.9000000954,stroop,,False,incongruent,"{'text': '노랑', 'letterColor': 'blue', 'userColor': 'blue'}",False,1049.5999999046326,1020549.5,7.0
ORvIk1xRWIQmKuLVe6GXNouvAXx2,True,8,,red,congruent,빨강,red,ORvIk1xRWIQmKuLVe6GXNouvAXx2,1021166.5,stroop,,False,congruent,"{'text': '빨강', 'letterColor': 'red', 'userColor': 'red'}",False,1193.2000000476837,1022359.7000000477,8.0
ORvIk1xRWIQmKuLVe6GXNouvAXx2,True,9,,green,congruent,초록,green,ORvIk1xRWIQmKuLVe6GXNouvAXx2,1022986.5,stroop,,False,congruent,"{'text': '초록', 'letterColor': 'green', 'userColor': 'green'}",False,695.9000000953674,1023682.4000000954,9.0
ORvIk1xRWIQmKuLVe6GXNouvAXx2,False,10,,yellow,incongruent,파랑,blue,ORvIk1xRWIQmKuLVe6GXNouvAXx2,1024306.6000000238,stroop,,False,incongruent,"{'text': '파랑', 'letterColor': 'yellow', 'userColor': 'blue'}",False,821.2000000476837,1025127.8000000715,10.0
ORvIk1xRWIQmKuLVe6GXNouvAXx2,True,11,,green,incongruent,파랑,green,ORvIk1xRWIQmKuLVe6GXNouvAXx2,1025750.1000000238,stroop,,False,incongruent,"{'text': '파랑', 'letterColor': 'green', 'userColor': 'green'}",False,1427.8000000715256,1027177.9000000954,11.0
ORvIk1xRWIQmKuLVe6GXNouvAXx2,True,12,,yellow,neutral,가방,yellow,ORvIk1xRWIQmKuLVe6GXNouvAXx2,1027804.3000000715,stroop,,False,neutral,"{'text': '가방', 'letterColor': 'yellow', 'userColor': 'yellow'}",False,913.1999999284744,1028717.5,12.0
ORvIk1xRWIQmKuLVe6GXNouvAXx2,True,13,,red,neutral,기차,red,ORvIk1xRWIQmKuLVe6GXNouvAXx2,1029350.4000000954,stroop,,False,neutral,"{'text': '기차', 'letterColor': 'red', 'userColor': 'red'}",False,1055.0999999046326,1030405.5,13.0
ORvIk1xRWIQmKuLVe6GXNouvAXx2,True,14,,red,incongruent,초록,red,ORvIk1xRWIQmKuLVe6GXNouvAXx2,1031035.4000000954,stroop,,False,incongruent,"{'text': '초록', 'letterColor': 'red', 'userColor': 'red'}",False,1214.3999999761581,1032249.8000000715,14.0
ORvIk1xRWIQmKuLVe6GXNouvAXx2,True,15,,blue,neutral,기차,blue,ORvIk1xRWIQmKuLVe6GXNouvAXx2,1032868.8000000715,stroop,,False,neutral,"{'text': '기차', 'letterColor': 'blue', 'userColor': 'blue'}",False,784.7999999523163,1033653.6000000238,15.0
ORvIk1xRWIQmKuLVe6GXNouvAXx2,True,16,,blue,neutral,가방,blue,ORvIk1xRWIQmKuLVe6GXNouvAXx2,1034286.6000000238,stroop,,False,neutral,"{'text': '가방', 'letterColor': 'blue', 'userColor': 'blue'}",False,1342.7000000476837,1035629.3000000715,16.0
ORvIk1xRWIQmKuLVe6GXNouvAXx2,True,17,,blue,congruent,파랑,blue,ORvIk1xRWIQmKuLVe6GXNouvAXx2,1036241.7000000477,stroop,,False,congruent,"{'text': '파랑', 'letterColor': 'blue', 'userColor': 'blue'}",False,749.5,1036991.2000000477,17.0
ORvIk1xRWIQmKuLVe6GXNouvAXx2,True,18,,green,incongruent,빨강,green,ORvIk1xRWIQmKuLVe6GXNouvAXx2,1037620.7000000477,stroop,,False,incongruent,"{'text': '빨강', 'letterColor': 'green', 'userColor': 'green'}",False,933.1000000238419,1038553.8000000715,18.0
ORvIk1xRWIQmKuLVe6GXNouvAXx2,True,19,,green,congruent,초록,green,ORvIk1xRWIQmKuLVe6GXNouvAXx2,1039169.8000000715,stroop,,False,congruent,"{'text': '초록', 'letterColor': 'green', 'userColor': 'green'}",False,551.8999999761581,1039721.7000000477,19.0
ORvIk1xRWIQmKuLVe6GXNouvAXx2,True,20,,red,incongruent,파랑,red,ORvIk1xRWIQmKuLVe6GXNouvAXx2,1040340.0,stroop,,False,incongruent,"{'text': '파랑', 'letterColor': 'red', 'userColor': 'red'}",False,1311.9000000953674,1041651.9000000954,20.0
ORvIk1xRWIQmKuLVe6GXNouvAXx2,True,21,,green,incongruent,빨강,green,ORvIk1xRWIQmKuLVe6GXNouvAXx2,1042266.9000000954,stroop,,False,incongruent,"{'text': '빨강', 'letterColor': 'green', 'userColor': 'green'}",False,1502.5,1043769.4000000954,21.0
ORvIk1xRWIQmKuLVe6GXNouvAXx2,True,22,,green,congruent,초록,green,ORvIk1xRWIQmKuLVe6GXNouvAXx2,1044405.7000000477,stroop,,False,congruent,"{'text': '초록', 'letterColor': 'green', 'userColor': 'green'}",False,648.8999999761581,1045054.6000000238,22.0
ORvIk1xRWIQmKuLVe6GXNouvAXx2,True,23,,green,incongruent,파랑,green,ORvIk1xRWIQmKuLVe6GXNouvAXx2,1045671.4000000954,stroop,,False,incongruent,"{'text': '파랑', 'letterColor': 'green', 'userColor': 'green'}",False,595.0999999046326,1046266.5,23.0
ORvIk1xRWIQmKuLVe6GXNouvAXx2,True,24,,blue,congruent,파랑,blue,ORvIk1xRWIQmKuLVe6GXNouvAXx2,1046892.6000000238,stroop,,False,congruent,"{'text': '파랑', 'letterColor': 'blue', 'userColor': 'blue'}",False,827.7000000476837,1047720.3000000715,24.0
ORvIk1xRWIQmKuLVe6GXNouvAXx2,True,25,,yellow,congruent,노랑,yellow,ORvIk1xRWIQmKuLVe6GXNouvAXx2,1048330.7000000477,stroop,,False,congruent,"{'text': '노랑', 'letterColor': 'yellow', 'userColor': 'yellow'}",False,1167.6000000238419,1049498.3000000715,25.0
ORvIk1xRWIQmKuLVe6GXNouvAXx2,True,26,,green,congruent,초록,green,ORvIk1xRWIQmKuLVe6GXNouvAXx2,1050113.4000000954,stroop,,False,congruent,"{'text': '초록', 'letterColor': 'green', 'userColor': 'green'}",False,766.8999999761581,1050880.3000000715,26.0
ORvIk1xRWIQmKuLVe6GXNouvAXx2,True,27,,red,incongruent,초록,red,ORvIk1xRWIQmKuLVe6GXNouvAXx2,1051502.1000000238,stroop,,False,incongruent,"{'text': '초록', 'letterColor': 'red', 'userColor': 'red'}",False,900.3000000715256,1052402.4000000954,27.0
ORvIk1xRWIQmKuLVe6GXNouvAXx2,True,28,,yellow,congruent,노랑,yellow,ORvIk1xRWIQmKuLVe6GXNouvAXx2,1053021.5,stroop,,False,congruent,"{'text': '노랑', 'letterColor': 'yellow', 'userColor': 'yellow'}",False,1321.5,1054343.0,28.0
ORvIk1xRWIQmKuLVe6GXNouvAXx2,True,29,,red,neutral,학교,red,ORvIk1xRWIQmKuLVe6GXNouvAXx2,1054989.5,stroop,,False,neutral,"{'text': '학교', 'letterColor': 'red', 'userColor': 'red'}",False,1127.6000000238419,1056117.1000000238,29.0
ORvIk1xRWIQmKuLVe6GXNouvAXx2,True,30,,blue,incongruent,빨강,blue,ORvIk1xRWIQmKuLVe6GXNouvAXx2,1056738.0,stroop,,False,incongruent,"{'text': '빨강', 'letterColor': 'blue', 'userColor': 'blue'}",False,1614.7000000476837,1058352.7000000477,30.0
ORvIk1xRWIQmKuLVe6GXNouvAXx2,True,31,,red,congruent,빨강,red,ORvIk1xRWIQmKuLVe6GXNouvAXx2,1058976.0,stroop,,False,congruent,"{'text': '빨강', 'letterColor': 'red', 'userColor': 'red'}",False,780.9000000953674,1059756.9000000954,31.0
ORvIk1xRWIQmKuLVe6GXNouvAXx2,True,32,,green,congruent,초록,green,ORvIk1xRWIQmKuLVe6GXNouvAXx2,1060386.6000000238,stroop,,False,congruent,"{'text': '초록', 'letterColor': 'green', 'userColor': 'green'}",False,665.3999999761581,1061052.0,32.0
ORvIk1xRWIQmKuLVe6GXNouvAXx2,True,33,,green,incongruent,노랑,green,ORvIk1xRWIQmKuLVe6GXNouvAXx2,1061676.1000000238,stroop,,False,incongruent,"{'text': '노랑', 'letterColor': 'green', 'userColor': 'green'}",False,825.6000000238419,1062501.7000000477,33.0
ORvIk1xRWIQmKuLVe6GXNouvAXx2,True,34,,yellow,congruent,노랑,yellow,ORvIk1xRWIQmKuLVe6GXNouvAXx2,1063120.6000000238,stroop,,False,congruent,"{'text': '노랑', 'letterColor': 'yellow', 'userColor': 'yellow'}",False,753.3000000715256,1063873.9000000954,34.0
ORvIk1xRWIQmKuLVe6GXNouvAXx2,True,35,,green,congruent,초록,green,ORvIk1xRWIQmKuLVe6GXNouvAXx2,1064489.0,stroop,,False,congruent,"{'text': '초록', 'letterColor': 'green', 'userColor': 'green'}",False,592.7000000476837,1065081.7000000477,35.0
ORvIk1xRWIQmKuLVe6GXNouvAXx2,True,36,,red,congruent,빨강,red,ORvIk1xRWIQmKuLVe6GXNouvAXx2,1065714.3000000715,stroop,,False,congruent,"{'text': '빨강', 'letterColor': 'red', 'userColor': 'red'}",False,823.1999999284744,1066537.5,36.0
ORvIk1xRWIQmKuLVe6GXNouvAXx2,True,37,,red,neutral,학교,red,ORvIk1xRWIQmKuLVe6GXNouvAXx2,1067172.2000000477,stroop,,False,neutral,"{'text': '학교', 'letterColor': 'red', 'userColor': 'red'}",False,918.7000000476837,1068090.9000000954,37.0
ORvIk1xRWIQmKuLVe6GXNouvAXx2,True,38,,yellow,incongruent,빨강,yellow,ORvIk1xRWIQmKuLVe6GXNouvAXx2,1068718.5,stroop,,False,incongruent,"{'text': '빨강', 'letterColor': 'yellow', 'userColor': 'yellow'}",False,740.7000000476837,1069459.2000000477,38.0
ORvIk1xRWIQmKuLVe6GXNouvAXx2,True,39,,green,congruent,초록,green,ORvIk1xRWIQmKuLVe6GXNouvAXx2,1070070.4000000954,stroop,,False,congruent,"{'text': '초록', 'letterColor': 'green', 'userColor': 'green'}",False,619.5999999046326,1070690.0,39.0
ORvIk1xRWIQmKuLVe6GXNouvAXx2,True,40,,red,neutral,가방,red,ORvIk1xRWIQmKuLVe6GXNouvAXx2,1071321.4000000954,stroop,,False,neutral,"{'text': '가방', 'letterColor': 'red', 'userColor': 'red'}",False,735.6999999284744,1072057.1000000238,40.0
ORvIk1xRWIQmKuLVe6GXNouvAXx2,True,41,,blue,neutral,가방,blue,ORvIk1xRWIQmKuLVe6GXNouvAXx2,1072672.1000000238,stroop,,False,neutral,"{'text': '가방', 'letterColor': 'blue', 'userColor': 'blue'}",False,876.2000000476837,1073548.3000000715,41.0
ORvIk1xRWIQmKuLVe6GXNouvAXx2,True,42,,red,incongruent,노랑,red,ORvIk1xRWIQmKuLVe6GXNouvAXx2,1074173.4000000954,stroop,,False,incongruent,"{'text': '노랑', 'letterColor': 'red', 'userColor': 'red'}",False,1101.0,1075274.4000000954,42.0
ORvIk1xRWIQmKuLVe6GXNouvAXx2,True,43,,yellow,congruent,노랑,yellow,ORvIk1xRWIQmKuLVe6GXNouvAXx2,1075906.2000000477,stroop,,False,congruent,"{'text': '노랑', 'letterColor': 'yellow', 'userColor': 'yellow'}",False,699.0,1076605.2000000477,43.0
ORvIk1xRWIQmKuLVe6GXNouvAXx2,True,44,,blue,congruent,파랑,blue,ORvIk1xRWIQmKuLVe6GXNouvAXx2,1077240.0,stroop,,False,congruent,"{'text': '파랑', 'letterColor': 'blue', 'userColor': 'blue'}",False,1721.6000000238419,1078961.6000000238,44.0
ORvIk1xRWIQmKuLVe6GXNouvAXx2,True,45,,green,neutral,기차,green,ORvIk1xRWIQmKuLVe6GXNouvAXx2,1079576.6000000238,stroop,,False,neutral,"{'text': '기차', 'letterColor': 'green', 'userColor': 'green'}",False,745.5,1080322.1000000238,45.0
ORvIk1xRWIQmKuLVe6GXNouvAXx2,True,46,,blue,neutral,가방,blue,ORvIk1xRWIQmKuLVe6GXNouvAXx2,1080944.0,stroop,,False,neutral,"{'text': '가방', 'letterColor': 'blue', 'userColor': 'blue'}",False,611.5,1081555.5,46.0
ORvIk1xRWIQmKuLVe6GXNouvAXx2,False,47,,blue,neutral,기차,green,ORvIk1xRWIQmKuLVe6GXNouvAXx2,1082179.6000000238,stroop,,False,neutral,"{'text': '기차', 'letterColor': 'blue', 'userColor': 'green'}",False,623.0,1082802.6000000238,47.0
ORvIk1xRWIQmKuLVe6GXNouvAXx2,True,48,,blue,congruent,파랑,blue,ORvIk1xRWIQmKuLVe6GXNouvAXx2,1083414.4000000954,stroop,,False,congruent,"{'text': '파랑', 'letterColor': 'blue', 'userColor': 'blue'}",False,955.5,1084369.9000000954,48.0
ORvIk1xRWIQmKuLVe6GXNouvAXx2,True,49,,green,neutral,학교,green,ORvIk1xRWIQmKuLVe6GXNouvAXx2,1084990.7000000477,stroop,,False,neutral,"{'text': '학교', 'letterColor': 'green', 'userColor': 'green'}",False,728.8999999761581,1085719.6000000238,49.0
ORvIk1xRWIQmKuLVe6GXNouvAXx2,True,50,,yellow,neutral,가방,yellow,ORvIk1xRWIQmKuLVe6GXNouvAXx2,1086354.9000000954,stroop,,False,neutral,"{'text': '가방', 'letterColor': 'yellow', 'userColor': 'yellow'}",False,842.5,1087197.4000000954,50.0
ORvIk1xRWIQmKuLVe6GXNouvAXx2,True,51,,yellow,congruent,노랑,yellow,ORvIk1xRWIQmKuLVe6GXNouvAXx2,1087824.2000000477,stroop,,False,congruent,"{'text': '노랑', 'letterColor': 'yellow', 'userColor': 'yellow'}",False,683.2999999523163,1088507.5,51.0
ORvIk1xRWIQmKuLVe6GXNouvAXx2,True,52,,red,congruent,빨강,red,ORvIk1xRWIQmKuLVe6GXNouvAXx2,1089141.1000000238,stroop,,False,congruent,"{'text': '빨강', 'letterColor': 'red', 'userColor': 'red'}",False,811.3999999761581,1089952.5,52.0
ORvIk1xRWIQmKuLVe6GXNouvAXx2,True,53,,blue,congruent,파랑,blue,ORvIk1xRWIQmKuLVe6GXNouvAXx2,1090584.7000000477,stroop,,False,congruent,"{'text': '파랑', 'letterColor': 'blue', 'userColor': 'blue'}",False,535.2999999523163,1091120.0,53.0
ORvIk1xRWIQmKuLVe6GXNouvAXx2,True,54,,yellow,neutral,학교,yellow,ORvIk1xRWIQmKuLVe6GXNouvAXx2,1091739.5,stroop,,False,neutral,"{'text': '학교', 'letterColor': 'yellow', 'userColor': 'yellow'}",False,739.7000000476837,1092479.2000000477,54.0
ORvIk1xRWIQmKuLVe6GXNouvAXx2,True,55,,yellow,incongruent,파랑,yellow,ORvIk1xRWIQmKuLVe6GXNouvAXx2,1093107.1000000238,stroop,,False,incongruent,"{'text': '파랑', 'letterColor': 'yellow', 'userColor': 'yellow'}",False,1201.8999999761581,1094309.0,55.0
ORvIk1xRWIQmKuLVe6GXNouvAXx2,True,56,,red,neutral,가방,red,ORvIk1xRWIQmKuLVe6GXNouvAXx2,1094938.0,stroop,,False,neutral,"{'text': '가방', 'letterColor': 'red', 'userColor': 'red'}",False,786.8000000715256,1095724.8000000715,56.0
ORvIk1xRWIQmKuLVe6GXNouvAXx2,True,57,,red,neutral,기차,red,ORvIk1xRWIQmKuLVe6GXNouvAXx2,1096340.9000000954,stroop,,False,neutral,"{'text': '기차', 'letterColor': 'red', 'userColor': 'red'}",False,894.0999999046326,1097235.0,57.0
ORvIk1xRWIQmKuLVe6GXNouvAXx2,True,58,,yellow,incongruent,파랑,yellow,ORvIk1xRWIQmKuLVe6GXNouvAXx2,1097843.9000000954,stroop,,False,incongruent,"{'text': '파랑', 'letterColor': 'yellow', 'userColor': 'yellow'}",False,1680.1999999284744,1099524.1000000238,58.0
ORvIk1xRWIQmKuLVe6GXNouvAXx2,True,59,,red,incongruent,파랑,red,ORvIk1xRWIQmKuLVe6GXNouvAXx2,1100156.5,stroop,,False,incongruent,"{'text': '파랑', 'letterColor': 'red', 'userColor': 'red'}",False,975.3000000715256,1101131.8000000715,59.0
ORvIk1xRWIQmKuLVe6GXNouvAXx2,True,60,,red,neutral,학교,red,ORvIk1xRWIQmKuLVe6GXNouvAXx2,1101758.4000000954,stroop,,False,neutral,"{'text': '학교', 'letterColor': 'red', 'userColor': 'red'}",False,1265.0999999046326,1103023.5,60.0
ORvIk1xRWIQmKuLVe6GXNouvAXx2,True,61,,green,incongruent,노랑,green,ORvIk1xRWIQmKuLVe6GXNouvAXx2,1103631.8000000715,stroop,,False,incongruent,"{'text': '노랑', 'letterColor': 'green', 'userColor': 'green'}",False,1166.6999999284744,1104798.5,61.0
ORvIk1xRWIQmKuLVe6GXNouvAXx2,True,62,,green,congruent,초록,green,ORvIk1xRWIQmKuLVe6GXNouvAXx2,1105425.9000000954,stroop,,False,congruent,"{'text': '초록', 'letterColor': 'green', 'userColor': 'green'}",False,632.0,1106057.9000000954,62.0
ORvIk1xRWIQmKuLVe6GXNouvAXx2,True,63,,blue,neutral,학교,blue,ORvIk1xRWIQmKuLVe6GXNouvAXx2,1106694.8000000715,stroop,,False,neutral,"{'text': '학교', 'letterColor': 'blue', 'userColor': 'blue'}",False,1295.2999999523163,1107990.1000000238,63.0
ORvIk1xRWIQmKuLVe6GXNouvAXx2,True,64,,red,congruent,빨강,red,ORvIk1xRWIQmKuLVe6GXNouvAXx2,1108609.8000000715,stroop,,False,congruent,"{'text': '빨강', 'letterColor': 'red', 'userColor': 'red'}",False,855.5,1109465.3000000715,64.0
ORvIk1xRWIQmKuLVe6GXNouvAXx2,True,65,,yellow,neutral,학교,yellow,ORvIk1xRWIQmKuLVe6GXNouvAXx2,1110074.9000000954,stroop,,False,neutral,"{'text': '학교', 'letterColor': 'yellow', 'userColor': 'yellow'}",False,1100.5999999046326,1111175.5,65.0
ORvIk1xRWIQmKuLVe6GXNouvAXx2,True,66,,yellow,neutral,기차,yellow,ORvIk1xRWIQmKuLVe6GXNouvAXx2,1111791.9000000954,stroop,,False,neutral,"{'text': '기차', 'letterColor': 'yellow', 'userColor': 'yellow'}",False,640.8999999761581,1112432.8000000715,66.0
ORvIk1xRWIQmKuLVe6GXNouvAXx2,True,67,,red,congruent,빨강,red,ORvIk1xRWIQmKuLVe6GXNouvAXx2,1113049.5,stroop,,False,congruent,"{'text': '빨강', 'letterColor': 'red', 'userColor': 'red'}",False,864.0,1113913.5,67.0
ORvIk1xRWIQmKuLVe6GXNouvAXx2,True,68,,yellow,neutral,기차,yellow,ORvIk1xRWIQmKuLVe6GXNouvAXx2,1114527.0,stroop,,False,neutral,"{'text': '기차', 'letterColor': 'yellow', 'userColor': 'yellow'}",False,1055.7000000476837,1115582.7000000477,68.0
ORvIk1xRWIQmKuLVe6GXNouvAXx2,True,69,,red,incongruent,파랑,red,ORvIk1xRWIQmKuLVe6GXNouvAXx2,1116207.5,stroop,,False,incongruent,"{'text': '파랑', 'letterColor': 'red', 'userColor': 'red'}",False,1230.1000000238419,1117437.6000000238,69.0
ORvIk1xRWIQmKuLVe6GXNouvAXx2,True,70,,red,incongruent,노랑,red,ORvIk1xRWIQmKuLVe6GXNouvAXx2,1118054.6000000238,stroop,,False,incongruent,"{'text': '노랑', 'letterColor': 'red', 'userColor': 'red'}",False,862.2000000476837,1118916.8000000715,70.0
ORvIk1xRWIQmKuLVe6GXNouvAXx2,True,71,,yellow,incongruent,초록,yellow,ORvIk1xRWIQmKuLVe6GXNouvAXx2,1119545.0,stroop,,False,incongruent,"{'text': '초록', 'letterColor': 'yellow', 'userColor': 'yellow'}",False,901.6000000238419,1120446.6000000238,71.0
ORvIk1xRWIQmKuLVe6GXNouvAXx2,True,72,,yellow,neutral,기차,yellow,ORvIk1xRWIQmKuLVe6GXNouvAXx2,1121073.8000000715,stroop,,False,neutral,"{'text': '기차', 'letterColor': 'yellow', 'userColor': 'yellow'}",False,647.8999999761581,1121721.7000000477,72.0
ORvIk1xRWIQmKuLVe6GXNouvAXx2,True,73,,green,incongruent,빨강,green,ORvIk1xRWIQmKuLVe6GXNouvAXx2,1122350.3000000715,stroop,,False,incongruent,"{'text': '빨강', 'letterColor': 'green', 'userColor': 'green'}",False,893.1999999284744,1123243.5,73.0
ORvIk1xRWIQmKuLVe6GXNouvAXx2,True,74,,blue,neutral,기차,blue,ORvIk1xRWIQmKuLVe6GXNouvAXx2,1123877.7000000477,stroop,,False,neutral,"{'text': '기차', 'letterColor': 'blue', 'userColor': 'blue'}",False,638.3999999761581,1124516.1000000238,74.0
ORvIk1xRWIQmKuLVe6GXNouvAXx2,True,75,,red,neutral,기차,red,ORvIk1xRWIQmKuLVe6GXNouvAXx2,1125142.0,stroop,,False,neutral,"{'text': '기차', 'letterColor': 'red', 'userColor': 'red'}",False,674.8000000715256,1125816.8000000715,75.0
ORvIk1xRWIQmKuLVe6GXNouvAXx2,True,76,,red,incongruent,초록,red,ORvIk1xRWIQmKuLVe6GXNouvAXx2,1126430.1000000238,stroop,,False,incongruent,"{'text': '초록', 'letterColor': 'red', 'userColor': 'red'}",False,725.3999999761581,1127155.5,76.0
ORvIk1xRWIQmKuLVe6GXNouvAXx2,True,77,,blue,incongruent,빨강,blue,ORvIk1xRWIQmKuLVe6GXNouvAXx2,1127778.2000000477,stroop,,False,incongruent,"{'text': '빨강', 'letterColor': 'blue', 'userColor': 'blue'}",False,1250.7000000476837,1129028.9000000954,77.0
ORvIk1xRWIQmKuLVe6GXNouvAXx2,True,78,,yellow,congruent,노랑,yellow,ORvIk1xRWIQmKuLVe6GXNouvAXx2,1129649.9000000954,stroop,,False,congruent,"{'text': '노랑', 'letterColor': 'yellow', 'userColor': 'yellow'}",False,738.8999999761581,1130388.8000000715,78.0
ORvIk1xRWIQmKuLVe6GXNouvAXx2,True,79,,green,incongruent,노랑,green,ORvIk1xRWIQmKuLVe6GXNouvAXx2,1131010.6000000238,stroop,,False,incongruent,"{'text': '노랑', 'letterColor': 'green', 'userColor': 'green'}",False,1054.6000000238419,1132065.2000000477,79.0
ORvIk1xRWIQmKuLVe6GXNouvAXx2,True,80,,green,neutral,기차,green,ORvIk1xRWIQmKuLVe6GXNouvAXx2,1132694.2000000477,stroop,,False,neutral,"{'text': '기차', 'letterColor': 'green', 'userColor': 'green'}",False,1392.7000000476837,1134086.9000000954,80.0
ORvIk1xRWIQmKuLVe6GXNouvAXx2,True,81,,red,congruent,빨강,red,ORvIk1xRWIQmKuLVe6GXNouvAXx2,1134716.2000000477,stroop,,False,congruent,"{'text': '빨강', 'letterColor': 'red', 'userColor': 'red'}",False,704.6000000238419,1135420.8000000715,81.0
ORvIk1xRWIQmKuLVe6GXNouvAXx2,True,82,,green,incongruent,파랑,green,ORvIk1xRWIQmKuLVe6GXNouvAXx2,1136036.1000000238,stroop,,False,incongruent,"{'text': '파랑', 'letterColor': 'green', 'userColor': 'green'}",False,857.8999999761581,1136894.0,82.0
ORvIk1xRWIQmKuLVe6GXNouvAXx2,True,83,,green,neutral,가방,green,ORvIk1xRWIQmKuLVe6GXNouvAXx2,1137513.0,stroop,,False,neutral,"{'text': '가방', 'letterColor': 'green', 'userColor': 'green'}",False,1012.9000000953674,1138525.9000000954,83.0
ORvIk1xRWIQmKuLVe6GXNouvAXx2,True,84,,yellow,incongruent,초록,yellow,ORvIk1xRWIQmKuLVe6GXNouvAXx2,1139138.5,stroop,,False,incongruent,"{'text': '초록', 'letterColor': 'yellow', 'userColor': 'yellow'}",False,920.1000000238419,1140058.6000000238,84.0
ORvIk1xRWIQmKuLVe6GXNouvAXx2,True,85,,red,incongruent,노랑,red,ORvIk1xRWIQmKuLVe6GXNouvAXx2,1140679.7000000477,stroop,,False,incongruent,"{'text': '노랑', 'letterColor': 'red', 'userColor': 'red'}",False,1367.1000000238419,1142046.8000000715,85.0
ORvIk1xRWIQmKuLVe6GXNouvAXx2,True,86,,red,congruent,빨강,red,ORvIk1xRWIQmKuLVe6GXNouvAXx2,1142663.7000000477,stroop,,False,congruent,"{'text': '빨강', 'letterColor': 'red', 'userColor': 'red'}",False,570.7999999523163,1143234.5,86.0
ORvIk1xRWIQmKuLVe6GXNouvAXx2,True,87,,yellow,congruent,노랑,yellow,ORvIk1xRWIQmKuLVe6GXNouvAXx2,1143849.4000000954,stroop,,False,congruent,"{'text': '노랑', 'letterColor': 'yellow', 'userColor': 'yellow'}",False,771.5,1144620.9000000954,87.0
ORvIk1xRWIQmKuLVe6GXNouvAXx2,True,88,,blue,neutral,학교,blue,ORvIk1xRWIQmKuLVe6GXNouvAXx2,1145248.1000000238,stroop,,False,neutral,"{'text': '학교', 'letterColor': 'blue', 'userColor': 'blue'}",False,1498.3000000715256,1146746.4000000954,88.0
ORvIk1xRWIQmKuLVe6GXNouvAXx2,True,89,,green,neutral,학교,green,ORvIk1xRWIQmKuLVe6GXNouvAXx2,1147370.0,stroop,,False,neutral,"{'text': '학교', 'letterColor': 'green', 'userColor': 'green'}",False,1037.7000000476837,1148407.7000000477,89.0
ORvIk1xRWIQmKuLVe6GXNouvAXx2,True,90,,blue,incongruent,노랑,blue,ORvIk1xRWIQmKuLVe6GXNouvAXx2,1149031.6000000238,stroop,,False,incongruent,"{'text': '노랑', 'letterColor': 'blue', 'userColor': 'blue'}",False,881.2000000476837,1149912.8000000715,90.0
ORvIk1xRWIQmKuLVe6GXNouvAXx2,True,91,,blue,congruent,파랑,blue,ORvIk1xRWIQmKuLVe6GXNouvAXx2,1150534.4000000954,stroop,,False,congruent,"{'text': '파랑', 'letterColor': 'blue', 'userColor': 'blue'}",False,392.0,1150926.4000000954,91.0
ORvIk1xRWIQmKuLVe6GXNouvAXx2,False,92,,blue,incongruent,초록,green,ORvIk1xRWIQmKuLVe6GXNouvAXx2,1151548.7000000477,stroop,,False,incongruent,"{'text': '초록', 'letterColor': 'blue', 'userColor': 'green'}",False,975.6000000238419,1152524.3000000715,92.0
ORvIk1xRWIQmKuLVe6GXNouvAXx2,True,93,,yellow,neutral,가방,yellow,ORvIk1xRWIQmKuLVe6GXNouvAXx2,1153150.5,stroop,,False,neutral,"{'text': '가방', 'letterColor': 'yellow', 'userColor': 'yellow'}",False,1734.3000000715256,1154884.8000000715,93.0
ORvIk1xRWIQmKuLVe6GXNouvAXx2,True,94,,yellow,congruent,노랑,yellow,ORvIk1xRWIQmKuLVe6GXNouvAXx2,1155502.1000000238,stroop,,False,congruent,"{'text': '노랑', 'letterColor': 'yellow', 'userColor': 'yellow'}",False,589.5,1156091.6000000238,94.0
ORvIk1xRWIQmKuLVe6GXNouvAXx2,False,95,,yellow,incongruent,빨강,blue,ORvIk1xRWIQmKuLVe6GXNouvAXx2,1156718.6000000238,stroop,,False,incongruent,"{'text': '빨강', 'letterColor': 'yellow', 'userColor': 'blue'}",False,2242.0,1158960.6000000238,95.0
ORvIk1xRWIQmKuLVe6GXNouvAXx2,True,96,,blue,incongruent,초록,blue,ORvIk1xRWIQmKuLVe6GXNouvAXx2,1159581.7000000477,stroop,,False,incongruent,"{'text': '초록', 'letterColor': 'blue', 'userColor': 'blue'}",False,2543.100000023842,1162124.8000000715,96.0
ORvIk1xRWIQmKuLVe6GXNouvAXx2,True,97,,blue,congruent,파랑,blue,ORvIk1xRWIQmKuLVe6GXNouvAXx2,1162748.7000000477,stroop,,False,congruent,"{'text': '파랑', 'letterColor': 'blue', 'userColor': 'blue'}",False,1322.6000000238419,1164071.3000000715,97.0
ORvIk1xRWIQmKuLVe6GXNouvAXx2,True,98,,blue,incongruent,노랑,blue,ORvIk1xRWIQmKuLVe6GXNouvAXx2,1164699.6000000238,stroop,,False,incongruent,"{'text': '노랑', 'letterColor': 'blue', 'userColor': 'blue'}",False,644.2000000476837,1165343.8000000715,98.0
ORvIk1xRWIQmKuLVe6GXNouvAXx2,True,99,,yellow,incongruent,빨강,yellow,ORvIk1xRWIQmKuLVe6GXNouvAXx2,1165966.9000000954,stroop,,False,incongruent,"{'text': '빨강', 'letterColor': 'yellow', 'userColor': 'yellow'}",False,1411.5,1167378.4000000954,99.0
ORvIk1xRWIQmKuLVe6GXNouvAXx2,True,100,,red,neutral,가방,red,ORvIk1xRWIQmKuLVe6GXNouvAXx2,1168000.3000000715,stroop,,False,neutral,"{'text': '가방', 'letterColor': 'red', 'userColor': 'red'}",False,2102.1999999284744,1170102.5,100.0
ORvIk1xRWIQmKuLVe6GXNouvAXx2,True,101,,green,neutral,학교,green,ORvIk1xRWIQmKuLVe6GXNouvAXx2,1170730.6000000238,stroop,,False,neutral,"{'text': '학교', 'letterColor': 'green', 'userColor': 'green'}",False,739.8999999761581,1171470.5,101.0
ORvIk1xRWIQmKuLVe6GXNouvAXx2,True,102,,yellow,congruent,노랑,yellow,ORvIk1xRWIQmKuLVe6GXNouvAXx2,1172100.1000000238,stroop,,False,congruent,"{'text': '노랑', 'letterColor': 'yellow', 'userColor': 'yellow'}",False,1021.0,1173121.1000000238,102.0
ORvIk1xRWIQmKuLVe6GXNouvAXx2,True,103,,yellow,neutral,학교,yellow,ORvIk1xRWIQmKuLVe6GXNouvAXx2,1173752.1000000238,stroop,,False,neutral,"{'text': '학교', 'letterColor': 'yellow', 'userColor': 'yellow'}",False,518.3000000715256,1174270.4000000954,103.0
ORvIk1xRWIQmKuLVe6GXNouvAXx2,True,104,,blue,congruent,파랑,blue,ORvIk1xRWIQmKuLVe6GXNouvAXx2,1174883.4000000954,stroop,,False,congruent,"{'text': '파랑', 'letterColor': 'blue', 'userColor': 'blue'}",False,880.1999999284744,1175763.6000000238,104.0
ORvIk1xRWIQmKuLVe6GXNouvAXx2,True,105,,green,congruent,초록,green,ORvIk1xRWIQmKuLVe6GXNouvAXx2,1176382.9000000954,stroop,,False,congruent,"{'text': '초록', 'letterColor': 'green', 'userColor': 'green'}",False,631.6999999284744,1177014.6000000238,105.0
ORvIk1xRWIQmKuLVe6GXNouvAXx2,True,106,,green,neutral,가방,green,ORvIk1xRWIQmKuLVe6GXNouvAXx2,1177641.4000000954,stroop,,False,neutral,"{'text': '가방', 'letterColor': 'green', 'userColor': 'green'}",False,672.5,1178313.9000000954,106.0
ORvIk1xRWIQmKuLVe6GXNouvAXx2,True,107,,blue,neutral,학교,blue,ORvIk1xRWIQmKuLVe6GXNouvAXx2,1178934.4000000954,stroop,,False,neutral,"{'text': '학교', 'letterColor': 'blue', 'userColor': 'blue'}",False,626.3999999761581,1179560.8000000715,107.0
80UJMJbCOMgs6YVpsMgXfYTzw6o2,True,0,,blue,neutral,학교,blue,80UJMJbCOMgs6YVpsMgXfYTzw6o2,974716.1999999993,stroop,,False,neutral,"{'text': '학교', 'letterColor': 'blue', 'userColor': 'blue'}",False,1266.0999999996275,975982.2999999989,0.0
80UJMJbCOMgs6YVpsMgXfYTzw6o2,True,1,,red,incongruent,초록,red,80UJMJbCOMgs6YVpsMgXfYTzw6o2,976613.6999999993,stroop,,False,incongruent,"{'text': '초록', 'letterColor': 'red', 'userColor': 'red'}",False,925.3000000007451,977539.0,1.0
80UJMJbCOMgs6YVpsMgXfYTzw6o2,True,2,,green,incongruent,노랑,green,80UJMJbCOMgs6YVpsMgXfYTzw6o2,978176.7999999989,stroop,,False,incongruent,"{'text': '노랑', 'letterColor': 'green', 'userColor': 'green'}",False,815.0,978991.7999999989,2.0
80UJMJbCOMgs6YVpsMgXfYTzw6o2,True,3,,green,incongruent,빨강,green,80UJMJbCOMgs6YVpsMgXfYTzw6o2,979625.7999999989,stroop,,False,incongruent,"{'text': '빨강', 'letterColor': 'green', 'userColor': 'green'}",False,778.9000000003725,980404.6999999993,3.0
80UJMJbCOMgs6YVpsMgXfYTzw6o2,True,4,,red,neutral,가방,red,80UJMJbCOMgs6YVpsMgXfYTzw6o2,981030.4000000004,stroop,,False,neutral,"{'text': '가방', 'letterColor': 'red', 'userColor': 'red'}",False,861.7999999988824,981892.1999999993,4.0
80UJMJbCOMgs6YVpsMgXfYTzw6o2,True,5,,yellow,congruent,노랑,yellow,80UJMJbCOMgs6YVpsMgXfYTzw6o2,982513.1999999993,stroop,,False,congruent,"{'text': '노랑', 'letterColor': 'yellow', 'userColor': 'yellow'}",False,912.8000000007451,983426.0,5.0
80UJMJbCOMgs6YVpsMgXfYTzw6o2,True,6,,green,neutral,학교,green,80UJMJbCOMgs6YVpsMgXfYTzw6o2,984066.6999999993,stroop,,False,neutral,"{'text': '학교', 'letterColor': 'green', 'userColor': 'green'}",False,847.3000000007451,984914.0,6.0
80UJMJbCOMgs6YVpsMgXfYTzw6o2,True,7,,red,incongruent,노랑,red,80UJMJbCOMgs6YVpsMgXfYTzw6o2,985558.4000000004,stroop,,False,incongruent,"{'text': '노랑', 'letterColor': 'red', 'userColor': 'red'}",False,868.8999999985099,986427.2999999989,7.0
80UJMJbCOMgs6YVpsMgXfYTzw6o2,True,8,,red,congruent,빨강,red,80UJMJbCOMgs6YVpsMgXfYTzw6o2,987071.5999999996,stroop,,False,congruent,"{'text': '빨강', 'letterColor': 'red', 'userColor': 'red'}",False,701.5999999996275,987773.1999999993,8.0
80UJMJbCOMgs6YVpsMgXfYTzw6o2,True,9,,blue,congruent,파랑,blue,80UJMJbCOMgs6YVpsMgXfYTzw6o2,988411.5,stroop,,False,congruent,"{'text': '파랑', 'letterColor': 'blue', 'userColor': 'blue'}",False,830.0,989241.5,9.0
80UJMJbCOMgs6YVpsMgXfYTzw6o2,True,10,,green,congruent,초록,green,80UJMJbCOMgs6YVpsMgXfYTzw6o2,989900.9000000004,stroop,,False,congruent,"{'text': '초록', 'letterColor': 'green', 'userColor': 'green'}",False,726.5999999996275,990627.5,10.0
80UJMJbCOMgs6YVpsMgXfYTzw6o2,True,11,,green,incongruent,파랑,green,80UJMJbCOMgs6YVpsMgXfYTzw6o2,991270.7999999989,stroop,,False,incongruent,"{'text': '파랑', 'letterColor': 'green', 'userColor': 'green'}",False,732.0,992002.7999999989,11.0
80UJMJbCOMgs6YVpsMgXfYTzw6o2,True,12,,yellow,incongruent,빨강,yellow,80UJMJbCOMgs6YVpsMgXfYTzw6o2,992650.9000000004,stroop,,False,incongruent,"{'text': '빨강', 'letterColor': 'yellow', 'userColor': 'yellow'}",False,838.1999999992549,993489.0999999996,12.0
80UJMJbCOMgs6YVpsMgXfYTzw6o2,True,13,,yellow,congruent,노랑,yellow,80UJMJbCOMgs6YVpsMgXfYTzw6o2,994126.6999999993,stroop,,False,congruent,"{'text': '노랑', 'letterColor': 'yellow', 'userColor': 'yellow'}",False,801.2000000011176,994927.9000000004,13.0
80UJMJbCOMgs6YVpsMgXfYTzw6o2,True,14,,blue,incongruent,노랑,blue,80UJMJbCOMgs6YVpsMgXfYTzw6o2,995556.2999999989,stroop,,False,incongruent,"{'text': '노랑', 'letterColor': 'blue', 'userColor': 'blue'}",False,721.7000000011176,996278.0,14.0
80UJMJbCOMgs6YVpsMgXfYTzw6o2,True,15,,green,neutral,기차,green,80UJMJbCOMgs6YVpsMgXfYTzw6o2,996921.5999999996,stroop,,False,neutral,"{'text': '기차', 'letterColor': 'green', 'userColor': 'green'}",False,766.0,997687.5999999996,15.0
80UJMJbCOMgs6YVpsMgXfYTzw6o2,True,16,,red,congruent,빨강,red,80UJMJbCOMgs6YVpsMgXfYTzw6o2,998333.6999999993,stroop,,False,congruent,"{'text': '빨강', 'letterColor': 'red', 'userColor': 'red'}",False,754.4000000003725,999088.0999999996,16.0
80UJMJbCOMgs6YVpsMgXfYTzw6o2,True,17,,red,neutral,가방,red,80UJMJbCOMgs6YVpsMgXfYTzw6o2,999722.5999999996,stroop,,False,neutral,"{'text': '가방', 'letterColor': 'red', 'userColor': 'red'}",False,638.3000000007451,1000360.9000000004,17.0
80UJMJbCOMgs6YVpsMgXfYTzw6o2,True,18,,green,neutral,기차,green,80UJMJbCOMgs6YVpsMgXfYTzw6o2,1001004.0,stroop,,False,neutral,"{'text': '기차', 'letterColor': 'green', 'userColor': 'green'}",False,597.1999999992549,1001601.1999999993,18.0
