participant_id,prp_exg_short_mu,prp_exg_short_sigma,prp_exg_short_tau,prp_exg_correct_short_mu,prp_exg_correct_short_sigma,prp_exg_correct_short_tau,prp_exg_long_mu,prp_exg_long_sigma,prp_exg_long_tau,prp_exg_correct_long_mu,prp_exg_correct_long_sigma,prp_exg_correct_long_tau,prp_exg_overall_mu,prp_exg_overall_sigma,prp_exg_overall_tau,prp_exg_correct_overall_mu,prp_exg_correct_overall_sigma,prp_exg_correct_overall_tau,prp_exg_mu_bottleneck,prp_exg_sigma_bottleneck,prp_exg_tau_bottleneck,prp_exg_correct_mu_bottleneck,prp_exg_correct_sigma_bottleneck,prp_exg_correct_tau_bottleneck,prp_exg_tau_ratio_short_long,prp_exg_correct_tau_ratio_short_long,prp_exg_soa_50_mu,prp_exg_soa_50_sigma,prp_exg_soa_50_tau,prp_exg_correct_soa_50_mu,prp_exg_correct_soa_50_sigma,prp_exg_correct_soa_50_tau,prp_exg_soa_150_mu,prp_exg_soa_150_sigma,prp_exg_soa_150_tau,prp_exg_correct_soa_150_mu,prp_exg_correct_soa_150_sigma,prp_exg_correct_soa_150_tau,prp_exg_soa_300_mu,prp_exg_soa_300_sigma,prp_exg_soa_300_tau,prp_exg_correct_soa_300_mu,prp_exg_correct_soa_300_sigma,prp_exg_correct_soa_300_tau,prp_exg_soa_600_mu,prp_exg_soa_600_sigma,prp_exg_soa_600_tau,prp_exg_correct_soa_600_mu,prp_exg_correct_soa_600_sigma,prp_exg_correct_soa_600_tau,prp_exg_soa_1200_mu,prp_exg_soa_1200_sigma,prp_exg_soa_1200_tau,prp_exg_correct_soa_1200_mu,prp_exg_correct_soa_1200_sigma,prp_exg_correct_soa_1200_tau,prp_slow_prob_baseline,prp_slow_prob_post_error,prp_slow_prob_post_error_delta,prp_slow_prob_stable,prp_slow_prob_stable_delta,prp_cb_base,prp_cb_bottleneck,prp_cb_r_squared,prp_cb_rmse,prp_cb_slope,prp_cb_n_trials,prp_cb_n_soa_levels,prp_bottleneck_auc,prp_bottleneck_slope_short,prp_bottleneck_slope_long,prp_rt2_asymptote_long_soa,prp_bottleneck_curvature,prp_cb_aic,prp_cb_bic,prp_cs_base,prp_cs_amplitude,prp_cs_tau,prp_cs_r_squared,prp_cs_rmse,prp_cs_aic,prp_cs_bic,prp_mix_cb_weight,prp_mix_r_squared,prp_mix_rmse,prp_mix_aic,prp_mix_bic
06qcrpGKL6Vc3LVplFQC90VAcRm1,719.3129327014602,129.6130702998853,89.79505489452296,719.3129327014602,129.6130702998853,89.79505489452296,455.6750673841328,78.01653363392846,20.08048360369404,455.6750673841328,78.01653363392846,20.08048360369404,401.3872014438898,60.2830692644868,241.6263260084276,399.98111889573823,58.99853208277939,241.17393892861347,263.63786531732745,51.59653666595683,69.71457129082893,263.63786531732745,51.59653666595683,69.71457129082893,4.471757586455941,4.471757586455941,812.3570641203279,151.7106293107154,45.82534685560461,812.3570641203279,151.7106293107154,45.82534685560461,698.3464011892296,123.34856251846529,63.73052606863835,698.3464011892296,123.34856251846529,63.73052606863835,517.1398472633448,112.42265589038986,122.99057144978823,506.69692115953615,104.88634424825494,123.75723388412712,359.7079987321247,22.85340647783681,128.1917860071322,359.7079987321247,22.85340647783681,128.1917860071322,455.6750673841328,78.01653363392846,20.08048360369404,455.6750673841328,78.01653363392846,20.08048360369404,0.7269459146074558,0.999940912268331,0.2729949976608752,0.7294586189843898,0.0025127043769339,479.0415551603215,440.14636133769903,0.99378207925546,11.828147003152653,-0.8675368039637751,119,5,644478.8179346218,-0.8675368039637751,-0.1594394841269842,475.7541666664183,0.0005741288433085,28.70482030316165,27.923696128029853,452.9185521310902,492.6751384894495,293.0298747520225,0.9872778377776386,16.91899596615712,34.2843701235575,33.1126838608598,0.660487667540326,0.9961178816759878,9.346058744956697,34.34954729830564,32.00617477291024
0ZtXlQtAJkW6jS21vfMOtNL4OnL2,537.4916403596056,28.936482075254222,336.8898888316686,535.893797130926,27.873451714444,338.58255172458644,332.6256316092116,10.0,89.13332333375092,334.03316474860173,10.0,71.21869076577782,333.7416652983316,10.0,327.86798267835906,333.33024439348605,10.0,328.5838687128128,204.86600875039403,18.936482075254222,247.75656549791768,201.8606323823243,17.873451714444,267.36386095880863,3.779617725799561,4.75412490855958,542.1150266756358,10.0,382.72913954428975,541.6677060348138,10.0,385.597461491912,533.3297958087106,33.82908894372938,290.5702234913395,533.3297958087106,33.82908894372938,290.5702234913395,414.7810977968811,29.661090086123217,251.63981269838945,411.1590049707694,30.8797789412636,274.1806756418646,349.2315507097102,18.381754700129367,121.93522677504792,349.2315507097102,18.381754700129367,121.93522677504792,332.6256316092116,10.0,89.13332333375092,334.03316474860173,10.0,71.21869076577782,0.2150755411164293,0.6122371613166734,0.397161620200244,0.1769924820282889,-0.0380830590881404,444.0970555799681,526.9705924634915,0.9932667712351168,15.972337626382409,-1.034929824561342,120,5,637726.3541666759,-1.034929824561342,-0.2447757936508136,421.7583333333362,0.0006541937023228,31.7085832761908,30.927459101059,387.5451600285815,638.141374339136,347.705395781834,0.9899670756117284,19.497124567110344,35.70266996599781,34.53098370330012,0.5567566556759647,0.9989777629996934,6.223469922225983,30.28327616511727,27.939903639721877
0d841i8KPjdjwCYfDuUUXj0SEjH2,597.8326474362099,42.9151572064368,486.0287635218672,592.4970924243266,40.102847153303465,502.58220575179257,312.0786940382228,24.67718618641548,209.09072036556756,320.6843686957025,32.580069074064404,208.5453819358645,393.14256973465336,83.21835444067334,535.5902490986454,393.41038859984303,78.946347736865,539.5210249501848,285.75395339798706,18.237971020021323,276.9380431562997,271.8127237286241,7.52277807923906,294.0368238159281,2.3244874888379075,2.409941668746016,660.0560597756445,93.7289401871896,569.2271845304073,684.3594396319347,112.09240573920384,567.382217582889,587.5100542950361,10.0,350.9782113089366,587.032659500531,10.0,351.2686124154865,675.4517397410534,197.42858310693936,427.81710607009205,675.4517397410534,197.42858310693936,427.81710607009205,381.6552599425071,10.0,469.76814332011566,381.33597368638215,10.0,448.8369109909796,312.0786940382228,24.67718618641548,209.09072036556756,320.6843686957025,32.580069074064404,208.5453819358645,0.494734856638216,0.8442659148574111,0.349531058219195,0.4357515545677593,-0.0589833020704567,521.1624995746513,769.5139448976231,0.7285004525964222,126.1300610404496,-0.3774210522049347,120,5,966515.7292187214,-0.3774210522049347,-0.6330486112170746,521.1624999841055,-3.171453222970816e-05,52.373136050476845,51.59201187534504,200.00000000001657,1020.3810417026086,1180.672215868464,0.8480530153018516,94.35829699626112,51.47099206435331,50.29930580165561,0.0,0.8480530153018516,94.35829699626112,57.47099206435331,55.12761953895792
0oa5NYVnIBS9NmrmRAZrahXDctP2,415.0270708272255,10.0,431.8938255154008,413.97477902813887,10.0,436.0281256393585,410.5784885784353,73.43789147337891,99.54495985540608,410.5784885784353,73.43789147337891,99.54495985540608,368.0383152601681,60.2094678261462,319.869046116348,369.644267312295,60.36126170078283,308.1738405043868,4.44858224879016,-63.43789147337891,332.34886565999466,3.3962904497035424,-63.43789147337891,336.4831657839524,4.338680995429077,4.3802129838889945,524.7864508444919,84.73116833900274,384.79845390559103,518.1899457807658,86.43441462345102,400.4696537147604,413.8817987264424,10.0,370.3984438868056,412.8459089670732,10.0,365.2794280317775,360.5593454237306,55.59282597501641,372.6308009903885,364.720782997197,57.2553229552949,335.2890882219013,346.87030199645915,47.15438179279702,155.40662987205152,352.37648551158884,49.54345847437212,156.33132667067335,410.5784885784353,73.43789147337891,99.54495985540608,410.5784885784353,73.43789147337891,99.54495985540608,0.2921601297970719,0.5147772716880412,0.2226171418909693,0.2287002882712606,-0.0634598415258112,507.32538642264416,465.1956364724862,0.957746667039438,32.701390293388386,-0.6766622806997277,120,5,687544.0624998882,-0.6766622806997277,-0.2105902777791083,510.1249999993791,0.0005840315156732,38.87417593616784,38.09305176103604,474.4022792286757,510.27533215946727,331.74246860474176,0.9482018543147944,36.20702462683839,41.89253150471518,40.72084524201748,0.665608287413135,0.960968969931036,31.429736316763226,46.47754461234456,44.13417208694917
146QT9LupyU2BAiTsB3PMIpVXM22,508.8118355317701,70.21607182507562,491.48270886352753,515.2427699566122,77.73712768155626,469.9908712468185,350.0978441506862,79.51930459637309,176.35366908444453,288.90958691285977,10.0,227.72804251098185,362.238109373837,63.40301519497187,416.3926851894835,366.3490876467161,67.43177886961489,411.1610276387886,158.71399138108387,-9.303232771297472,315.129039779083,226.3331830437524,67.73712768155626,242.26282873583665,2.7869151314804106,2.0638251928247,639.0094967374092,221.5096538272425,433.8900800442752,670.8258221240128,239.63906726109573,360.4194492856447,499.5775212957272,10.0,424.9015188159202,538.5124647541595,50.10601201955974,398.62341863248537,415.7567132157874,69.93526969877746,256.28102114260145,410.5407121318077,69.74262411968594,266.7098510583374,364.54219095567856,10.0,330.6873182626224,364.9695388870013,10.0,358.22711093025737,350.0978441506862,79.51930459637309,176.35366908444453,288.90958691285977,10.0,227.72804251098185,0.4257197987071354,0.9942592824407176,0.568539483733582,0.3534065270428596,-0.0723132716642758,551.7534918700867,490.0575649580516,0.8221830378505814,82.1597433550644,-1.6097319794003802,117,5,791232.853260855,-1.6097319794003802,-0.1788524844718286,526.4500000004967,0.0005428033728737,48.08665441894202,47.30553024381022,563.2414298415141,633.5256616007408,234.4703167498633,0.9271429617101968,52.59061350050563,45.62537653258739,44.45369026988969,0.0,0.9271429617101968,52.59061350050563,51.62537653258739,49.28200400719199
1Vb7DcXYw9R86bw5qj9eBk9fPqA2,819.4679592232676,166.92037977290968,198.5757438485105,807.1483520057285,159.44257395991178,195.89125533161004,278.30777061877023,10.0,313.5654760620675,278.30777061877023,10.0,313.5654760620675,554.4817903380633,191.7869532808347,287.7934601853764,550.2686407570457,184.3419317255453,286.750564636685,541.1601886044973,156.92037977290968,-114.98973221355696,528.8405813869583,149.44257395991178,-117.67422073045744,0.633283186473004,0.624722012741081,910.5725202682272,185.779894145614,173.16571682888062,885.8395621930167,172.08761179911994,186.75228511291243,725.7762502035677,109.88746700690558,226.5716035731888,722.4995188529458,108.99207223499585,207.84132801468715,605.1180398503204,64.89312369456115,307.57764514964504,562.6060255036292,10.0,357.504182483312,383.4176894411224,37.08213741259164,287.3285769236619,407.80467041420144,10.0,277.1396493707689,278.30777061877023,10.0,313.5654760620675,278.30777061877023,10.0,313.5654760620675,0.167597352368807,0.519813096913677,0.35221574454487,0.1253049796015722,-0.0422923727672347,632.7172268087071,509.5154620850331,0.9418225322951984,44.14754808550461,-0.6509714912394412,120,5,857984.5833315203,-0.6509714912394412,-0.3243462301560103,591.8625000007451,0.0004638236305288,41.87537389505628,41.09424971992448,527.7527647494688,613.0582974188424,491.4120603682951,0.9701742307050476,31.610037314038912,40.53474706677285,39.363060804075154,0.237238339030933,0.9732106156947145,29.957843494062708,45.99791176554455,43.65453924014915
1dpmVw8fpcc2IHs0s9WqdU8Yvi53,1312.1751652058233,268.40581201670443,361.05166464386576,1312.1751652058233,268.40581201670443,361.05166464386576,584.2326055786895,79.1370742241778,304.0432250569044,584.2326055786895,79.1370742241778,304.0432250569044,1144.903836334835,412.9245253763026,263.9590010871182,1144.903836334835,412.9245253763026,263.9590010871182,727.9425596271338,189.26873779252665,57.00843958696135,727.9425596271338,189.26873779252665,57.00843958696135,1.1875011014512549,1.1875011014512549,1103.0340039203377,147.6166153602714,524.1535813330224,1103.0340039203377,147.6166153602714,524.1535813330224,1402.80582260519,258.1322689969895,316.483851649518,1402.80582260519,258.1322689969895,316.483851649518,1570.0385404481358,331.75000347649734,10.0,1570.0385404481358,331.75000347649734,10.0,753.439558033192,10.0,476.0537539126976,753.439558033192,10.0,476.0537539126976,584.2326055786895,79.1370742241778,304.0432250569044,584.2326055786895,79.1370742241778,304.0432250569044,0.1220504943269406,,,0.1215748160026754,-0.0004756783242651,888.2750000400141,941.638528794354,0.9425412147613496,74.00121065232355,-0.2470372806777026,120,5,1471541.4583352706,-0.2470372806777026,-0.7400813492056402,888.2750000059605,5.238465668661581e-05,47.04081453236879,46.25969035723698,200.00000000000367,1590.135351336727,1489.5930095812266,0.9436724247010932,73.26914659980265,48.941396007695616,47.76970974499792,0.4553307306702603,0.9462975999001402,71.54140296997808,54.702763446251325,52.35939092085593
1fbLQPCcysVlSKup96K4yI5NX6G3,666.892575100254,58.24995801372536,431.96639308058616,663.1397850835693,58.48265287540216,449.3486478574061,355.4349891851235,10.0,174.28696626458307,355.4349891851235,10.0,174.28696626458307,409.7642234664112,52.19229747711962,442.7536249058895,405.2918880428577,49.01525108256895,448.6058845697106,311.4575859151305,48.24995801372536,257.6794268160031,307.7047958984458,48.48265287540216,275.061681592823,2.4784778938938143,2.5782114261789086,749.524906422179,76.66118657966814,371.89390141365055,783.2646598430813,105.32265800528889,352.4530771045796,628.1030443093606,47.999518088511664,448.2455740044132,623.4348321088439,46.63189218325806,465.8701290124848,486.08177921824256,10.0,324.7262507333708,485.7181849528193,10.0,324.45846537555144,452.8480737337474,22.31078847759323,271.4477736009144,452.8480737337474,22.31078847759323,271.4477736009144,355.4349891851235,10.0,174.28696626458307,355.4349891851235,10.0,174.28696626458307,0.1502745871730662,0.1024218672983856,-0.0478527198746805,0.1220175868653718,-0.0282570003076943,584.1093425129707,581.6047297721535,0.8801623279843084,76.59279870186438,-1.2840789473814924,120,5,857894.4791663438,-1.2840789473814924,-0.3140218253942238,529.7249999940395,0.0004756020687406,47.38503060602158,46.60390643088978,470.6572233215177,739.9562120733909,497.4989899717847,0.9631682294166892,42.46220624986032,43.486144155907766,42.31445789321007,0.0,0.9631682294166892,42.46220624986032,49.486144155907766,47.14277163051237
1tT7dcLvf0bMGBdBWWYd8YkdJwr1,1151.027969602392,151.71659488283052,375.6210319243902,1151.027969602392,151.71659488283052,375.6210319243902,492.6388805584817,10.0,372.0894585307747,492.6388805584817,10.0,372.0894585307747,927.1202844527184,341.6964587666045,437.4273677398612,927.1202844527184,341.6964587666045,437.4273677398612,658.3890890439103,141.71659488283052,3.5315733936154743,658.3890890439103,141.71659488283052,3.5315733936154743,1.0094911944228686,1.0094911944228686,1166.6078088696122,178.45143863997765,417.99430517680776,1166.6078088696122,178.45143863997765,417.99430517680776,1155.4961563034851,137.01125473866696,307.3982563624676,1155.4961563034851,137.01125473866696,307.3982563624676,1124.4227093901516,180.60477626283912,592.0643825928624,1124.4227093901516,180.60477626283912,592.0643825928624,634.688068175493,175.19118867125974,567.4796373638079,634.688068175493,175.19118867125974,567.4796373638079,492.6388805584817,10.0,372.0894585307747,492.6388805584817,10.0,372.0894585307747,0.2248727669970758,,,0.2237211754857004,-0.0011515915113753,864.7173913740412,864.4122711302803,0.759098737576005,148.5666369361695,0.6192677969200997,109,5,1448728.5566006044,0.6192677969200997,-0.8915663018798282,864.7173913043479,-0.0002415631776839,54.010335911688514,53.22921173655672,200.0000000000058,1502.0898709297742,1634.540606079322,0.7985526338545168,135.85716611394864,55.11604084675804,53.94435458406034,0.0,0.7985526338545168,135.85716611394864,61.11604084675804,58.77266832136264
1upUBO9zBnhHcpJ1WoAnaBXWKRV2,626.492966234448,101.93324118860784,278.84118039938227,614.2116191439535,93.44310925047648,241.40580656622487,295.5536094974726,33.33945604994321,296.75983494265336,266.50651757146323,10.0,305.9447634629927,360.7323650811591,55.9291551234654,380.6681925033556,368.0538068640312,63.44454387370849,353.81947524567994,330.93935673697536,68.59378513866464,-17.91865454327109,347.70510157249026,83.44310925047648,-64.53895689676781,0.9396190035395668,0.7890502972946798,911.6515164120542,211.5116457812972,19.100890203334348,847.7563132489356,204.16604963925704,59.82435676800166,502.3260353098422,10.0,377.5684587183381,,,,431.20574914676746,10.0,305.48224579709535,430.6960039459235,10.0,314.00400982295025,353.1254284661289,10.0,214.24540654785565,354.21663329879306,10.0,238.31293114782773,295.5536094974726,33.33945604994321,296.75983494265336,266.50651757146323,10.0,305.9447634629927,0.5070653589486326,0.4897641663736927,-0.0173011925749398,0.398898599865321,-0.1081667590833115,578.2048367652552,429.85657654841214,0.9780667108079518,21.72253652979384,-0.7903421052767513,120,5,755291.5625001615,-0.7903421052767513,-0.1315396825301032,592.3291666706403,0.0006106551788216,34.78350271386795,34.002378538736146,556.5742876399551,471.8347483264949,295.8982055591342,0.9479855951291531,33.451875417639954,41.10107851299741,39.929392250299706,1.0,0.9780667108079518,21.72253652979384,42.78350271386795,40.440130188472544
23hG7h2ByUZDbmOMTDtp0HT0xRb2,723.1089670056527,111.81914035764112,725.3078078333502,723.5673512926492,117.15454605251652,746.2595096551868,401.0724654033804,124.30484189267452,465.532052801425,401.0724654033804,124.30484189267452,465.532052801425,553.1986097595839,166.9405947979117,648.8271773039343,548.6711663366276,165.7197710815589,646.6717027890205,322.0365016022724,-12.4857015350334,259.77575503192526,322.4948858892688,-7.150295840158009,280.7274568537618,1.5580190525414452,1.6030249800511749,672.088272921165,121.17012439583598,817.4189168543916,1278.818966945217,609.6394008194085,258.956804112075,735.4072840973386,10.0,669.8563851961522,735.4072840973386,10.0,669.8563851961522,708.2132999302867,104.21970860360364,484.97039390344185,718.7551734490457,107.13601450849856,418.495002207268,480.6697485632412,122.40172295438074,592.2338382471048,480.6697485632412,122.40172295438074,592.2338382471048,401.0724654033804,124.30484189267452,465.532052801425,401.0724654033804,124.30484189267452,465.532052801425,0.2723252225154268,0.542128794664801,0.2698035721493741,0.2546986650778604,-0.0176265574375664,967.5940224358708,558.6312023028648,0.9075700010145068,68.41384531844145,-1.2037170792746876,113,5,1261386.2253099796,-1.2037170792746876,-0.360093795060682,866.6166666944822,0.0004488744118185,46.2557522108124,45.4746280356806,785.9269117884453,776.6753071461491,549.270473422436,0.986609883890918,26.03932359601718,38.59607841427621,37.42439215157851,0.0,0.986609883890918,26.03932359601718,44.59607841427621,42.25270588888081
28nQWMwCaSNFBEXlicY3eHqpwKU2,1025.6424332539343,284.55743494909524,274.9033540179461,1026.749931777313,279.3187364254872,270.4148408684529,468.1539280699781,55.43921813813177,159.28905302994755,459.9110166430151,52.05668148573759,165.8521484719444,483.0938134004236,58.61087429230298,528.8339213540681,480.4053977851591,58.43409929465128,533.7910365243645,557.4885051839562,229.11821681096347,115.61430098799858,566.8389151342978,227.2620549397496,104.56269239650854,1.7258144787028284,1.6304572678731166,1211.4640480620717,361.32888588133926,206.95000003738843,1189.439334988099,333.7471840787787,232.6562616707413,1018.2530578866644,273.8972549597869,164.38868336147706,1018.2530578866644,273.8972549597869,164.38868336147706,555.1786803877555,10.0,560.307457518304,554.737971743805,10.0,570.349091756343,499.0267885277382,52.07618349688143,216.597711726294,496.78529268068615,50.80427811685079,212.09409877740237,468.1539280699781,55.43921813813177,159.28905302994755,459.9110166430151,52.05668148573759,165.8521484719444,0.5112451562188832,0.8839623755886429,0.3727172193697596,0.4607453148848012,-0.0504998413340819,627.4416668822067,723.331458307805,0.9555225733781084,62.614702462058446,-1.151287280671429,120,5,980008.6458146572,-1.151287280671429,-0.4858422618986123,627.4416666726271,0.0008595190744044,45.3700011414107,44.588876966278896,550.2999310536596,971.5508910684988,420.5823100423523,0.9652273726243608,55.363718094838745,46.13924471171892,44.96755844902122,0.3627317658101815,0.9698784942194802,51.52818371421844,51.4212891456618,49.07791662026641
2FHuv7L9nWPdbIiWHRIuXtcoyw83,762.440780164512,119.53040927233936,396.8124277324332,752.5356544224636,116.89631200502212,405.68236483835454,302.8028060222527,10.0,353.7125313265333,302.8028060222527,10.0,353.7125313265333,421.7910521607963,96.1678331271108,482.9130767358761,433.1400451043028,110.02906106923965,463.1242344831802,459.63797414225934,109.53040927233936,43.099896405899926,449.7328484002109,106.89631200502212,51.969833511821264,1.121850069162836,1.146926752402348,770.9886901145308,10.0,439.2350289904895,770.7184095864056,10.0,430.4800861868724,649.4580321476037,10.0,461.1679744191247,648.6305443805276,10.0,466.5355250316833,698.6147214375042,140.48715712294972,233.7165432111795,702.8160919337902,123.23505032205088,243.3694399518044,381.6191987768474,10.0,255.78160459633065,410.1782016074637,39.47294472681949,186.0114695102162,302.8028060222527,10.0,353.7125313265333,302.8028060222527,10.0,353.7125313265333,0.3389786383006251,0.4372200341543055,0.0982413958536804,0.3253411680992324,-0.0136374702013926,643.8920153324813,599.9999981630466,0.99672093467964,13.292925050073148,-1.1175518341305346,112,5,892909.4744024123,-1.1175518341305346,-0.2580946107033618,656.5454545454334,0.0008968224521408,29.87231942569194,29.09119525056014,599.8965196972867,747.9871990052493,325.3686745537461,0.9566174918051809,48.35070943841546,44.78480894768191,43.61312268498421,0.9879205544983374,0.9967269311618048,13.280764989863448,37.86316747047596,35.519794945080555
2h5FgHUEvBS1twD5DqbTIRrMm1f2,925.2717806489588,240.12624170672643,157.4690541605735,929.4501406632058,244.8346578867321,155.29585826072926,234.82961354748505,10.0,288.3214161719813,234.57552132363452,10.0,283.7758778844289,372.6204870061628,95.18736040951391,506.01645829973467,364.8945407632168,89.6725272177018,513.1098770067293,690.4421671014738,230.12624170672643,-130.8523620114078,694.8746193395713,234.8346578867321,-128.48001962369963,0.5461580213196668,0.547248270073101,1034.315816034309,224.0888468670886,110.97242452739738,1081.487560391645,243.505741097272,70.83995676984206,624.3208923500484,30.68934972329027,398.476817401384,624.3208923500484,30.68934972329027,398.476817401384,443.2409548024599,10.0,402.2923754418295,443.08200456807873,10.0,392.0272463083666,374.9067986382787,10.0,492.6363831860247,374.9067986382787,10.0,492.6363831860247,234.82961354748505,10.0,288.3214161719813,234.57552132363452,10.0,283.7758778844289,0.6793919336832716,0.9999920253424612,0.3206000916591895,0.6596068246353047,-0.0197851090479668,614.9197111035331,564.3974398563058,0.6641731244591138,121.40436554022756,-1.197790331842619,119,5,922709.9818803478,-1.197790331842619,-0.3889950396836043,523.162499996523,9.920277593226252e-05,51.99126837947779,51.21014420434599,200.00000000000028,945.1145028860736,1210.3185542893905,0.9120046278464786,62.14504336548695,47.29471062008591,46.12302435738821,0.0,0.9120046278464786,62.14504336548695,53.29471062008591,50.95133809469051
2zDXvJKvjeejeOSNbtDbtSI5cdz1,1220.3911920464602,236.06776811526683,178.10488200125,1220.3911920464602,236.06776811526683,178.10488200125,543.4191778579916,80.61781068049115,150.74959975459728,537.7797891847383,78.3552442868613,152.00535188267102,798.6852063321145,287.92757923030274,309.3961032566979,841.5890475308167,316.5336925529307,269.0747200289376,676.9720141884686,155.44995743477568,27.355282246652703,682.6114028617219,157.71252382840552,26.09953011857897,1.1814617238863911,1.1717013894268968,1430.318961875884,313.57726406913963,10.0,1430.318961875884,313.57726406913963,10.0,1133.418182316925,146.49299824043376,223.30624520047004,1133.418182316925,146.49299824043376,223.30624520047004,830.4544275625303,116.88942771700104,353.3240725620263,830.4544275625303,116.88942771700104,353.3240725620263,593.2685674049727,41.516228451203325,272.0406551329395,593.2685674049727,41.516228451203325,272.0406551329395,543.4191778579916,80.61781068049115,150.74959975459728,537.7797891847383,78.3552442868613,152.00535188267102,0.7343433833198404,1.0,0.2656566166801596,0.7198262333798254,-0.0145171499400149,694.1749998976119,794.4298936840866,0.9978002244762944,13.400689498323866,-1.0360263157885907,120,5,1105591.0416665468,-1.0360263157885907,-0.5070327380952604,694.1749999999689,0.0006241859787301,29.953061607318936,29.171937432187136,546.3352953924008,1004.798047008616,593.4023052400131,0.9873636744363672,32.11799047836213,40.69416324181261,39.52247697911491,1.0,0.9978002244762944,13.400689498323866,37.953061607318936,35.609689081923534
3FSnTCSiUodLp5u3bE0xaUjLk0b2,855.4137592198615,203.5331434310253,298.5481059192479,828.1365113989746,183.53545551684212,319.2980446893892,372.5431205060842,115.92283822750085,138.63107336427723,353.107866294276,106.21960944192038,155.92336349960175,463.4562829497825,157.6072448068472,446.40363207633857,468.9340043141574,163.16689619869808,439.3188822928825,482.8706387137773,87.61030520352448,159.9170325549707,475.02864510469857,77.31584607492177,163.37468118978745,2.153543925428327,2.0477883334668108,965.2371613543852,305.2623701086539,245.0149209390944,965.2371613543852,305.2623701086539,245.0149209390944,720.4411460118333,10.0,381.8956603471606,720.4068554458987,10.0,366.99511134267885,453.829443874051,10.0,484.4509848197908,453.829443874051,10.0,484.4509848197908,399.64726474256014,55.36169268104331,397.2501309114218,399.64726474256014,55.36169268104331,397.2501309114218,372.5431205060842,115.92283822750085,138.63107336427723,353.107866294276,106.21960944192038,155.92336349960175,0.4486730206011314,0.676651799253873,0.2279787786527415,0.398911487351814,-0.0497615332493174,511.1739130191902,771.249970882667,0.9451150727114564,57.36659251819228,-1.088616808820633,116,5,921378.5029644124,-1.088616808820633,-0.4747710489993204,511.173913043458,0.000301074210733,44.49462122012679,43.71349704499499,246.6690245618134,1006.3797126488796,914.991631509948,0.9931301758296738,20.29575999266687,36.10411996875605,34.932433706058355,0.0,0.9931301758296738,20.29575999266687,42.10411996875605,39.76074744336066
3WijiOiVCoMbn80F05SPYsxl0TC2,815.7271053398055,89.300410647071,274.89867585339897,826.3350191279387,97.19178375393676,250.6028422796672,360.383435903621,69.7732906997836,203.71802932200688,360.383435903621,69.7732906997836,203.71802932200688,587.3097119113866,181.7727967856349,275.6085375299557,595.0633273760232,185.67517350678625,260.53767057459726,455.3436694361845,19.527119947287403,71.18064653139209,465.95158322431774,27.41849305415316,46.88481295766027,1.3494076924280491,1.2301456238983728,933.4585066727308,153.25443173586535,209.8955635407553,962.08920717739,165.3076842798742,155.58234688762627,777.4266376154725,32.509021407223784,260.4747483597761,777.4266376154725,32.509021407223784,260.4747483597761,641.0825370680393,34.88721741698428,229.0474704321712,641.0825370680393,34.88721741698428,229.0474704321712,511.6415601340543,66.80275136069147,187.4521470759176,511.6415601340543,66.80275136069147,187.4521470759176,360.383435903621,69.7732906997836,203.71802932200688,360.383435903621,69.7732906997836,203.71802932200688,0.4787570765428573,0.2171398622665134,-0.2616172142763439,0.4842611048336389,0.0055040282907816,634.6215379055513,549.3221061237948,0.9581862767198854,43.42021996087439,-1.0949539473966543,120,5,866509.2708354197,-1.0949539473966543,-0.3235922619085463,564.0999999940395,0.0005416190306313,41.70925230325716,40.92812812812536,514.2553531488386,711.5719142562651,447.0749961913913,0.9985000095884526,8.223881432262871,27.07042291325668,25.89873665055898,0.0401637022993624,0.9985707206320582,8.027700495947672,32.82898122807618,30.485608702680786
3rlzYufVjVVLv3ZFLcpfZUtXEEi1,901.172737281568,235.4214944364106,14.689840547142673,893.5160451128756,225.89580078351617,36.76724953165984,430.3166734781764,29.418936544133363,88.36150265649538,430.3166734781764,29.418936544133363,88.36150265649538,408.7170448155864,48.128603302860526,333.4589394458824,407.4476003224793,48.80807527602247,336.2669531199015,470.8560638033916,206.0025578922772,-73.6716621093527,463.1993716346992,196.4768642393828,-51.59425312483553,0.166247065809296,0.4161003200069178,965.97392902916,226.5654182967033,10.890430286435254,985.3083852583836,212.96627388444324,10.0,842.0793876734267,227.9836265017593,10.0,814.2884047825293,219.5278237740565,41.21877618830478,413.1954695801218,10.0,363.55051478237135,413.1954695801218,10.0,363.55051478237135,372.9679078909522,52.23641539511869,208.76778771357024,368.3453761007949,51.12762742269008,217.1611240294551,430.3166734781764,29.418936544133363,88.36150265649538,430.3166734781764,29.418936544133363,88.36150265649538,0.4984208726952688,0.6843615231066376,0.1859406504113687,0.4899853659490884,-0.0084355067461804,532.7396240469014,495.0160335482679,0.96073591722039,33.63358903515304,-0.7769979023878845,118,5,747505.2717523731,-0.7769979023878845,-0.2607867927116062,518.6782608032227,0.00050022267319,39.155252412934665,38.374128237802864,482.8865844859252,559.1029329532032,398.4212371069512,0.9871921817363848,19.209367410939315,35.553980460424874,34.38229419772718,0.2053536599081754,0.9890854073542488,17.73287900347212,40.754204872463326,38.41083234706792
3xCaqfcHxRQxuOlEzXz3PNcHODH2,492.0723623061169,61.21459689682797,456.8428978832117,492.0723623061169,61.21459689682797,456.8428978832117,299.1078482969844,45.4650746581842,108.04708974161989,299.1078482969844,45.4650746581842,108.04708974161989,311.34264083734416,53.18685464002444,412.1178142424969,311.34264083734416,53.18685464002444,412.1178142424969,192.96451400913253,15.74952223864377,348.79580814159186,192.96451400913253,15.74952223864377,348.79580814159186,4.228183276159407,4.228183276159407,505.1917624565077,87.68935689035635,436.4581673962032,505.1917624565077,87.68935689035635,436.4581673962032,496.4971624525402,10.0,459.9678611767072,496.4971624525402,10.0,459.9678611767072,387.9945929848554,10.0,288.6910790419238,387.9945929848554,10.0,288.6910790419238,263.8930964568591,10.0,381.16400601785136,263.8930964568591,10.0,381.16400601785136,299.1078482969844,45.4650746581842,108.04708974161989,299.1078482969844,45.4650746581842,108.04708974161989,0.3373118889051229,0.2309969644541099,-0.1063149244510129,0.3363068360910949,-0.001005052814028,423.7938670093742,578.018871419439,0.7103743083691103,110.36696938420133,-1.1237376048771932,119,5,731309.1394929182,-1.1237376048771932,-0.3133283730160208,407.15833333383006,0.0002853596437408,51.038108987161344,50.25698481202954,261.0660509307559,751.5385716823827,758.6649087482288,0.9199577513102252,58.02033283761015,46.6079351527815,45.4362488900838,0.0,0.9199577513102252,58.02033283761015,52.6079351527815,50.2645626273861
4ySuGdFDDmaAr6JUXbD4UIY6BQ13,946.6903868014426,229.54174308050767,335.303607625054,966.806576771542,240.93165048626463,322.85454559137446,136.01941587901345,10.0,433.36252264540656,342.28528742822937,70.3213532181074,241.40809814076545,422.861462379268,143.08999447535209,585.1288553649599,412.386801087641,89.59736265571465,616.1873764617877,810.6709709224292,219.54174308050767,-98.05891502035256,624.5212893433127,170.61029726815724,81.44644745060901,0.7737254379502769,1.3373807592946507,942.2484947532308,165.9356473968609,275.1530789094021,942.2484947532308,165.9356473968609,275.1530789094021,1033.9120982546983,327.3691569652896,312.6574987812237,1060.7133774625129,335.7572354564349,304.34483343421425,567.8864233225328,10.0,482.6417542782655,911.681384293022,313.3074649922325,156.79078337383436,359.4267060216828,59.52819706344911,496.5610319369451,425.5904986817043,34.76106112045924,440.70226790718107,136.01941587901345,10.0,433.36252264540656,342.28528742822937,70.3213532181074,241.40809814076545,0.113917224030572,0.1863472548972961,0.0724300308667241,0.0952032868590482,-0.0187139371715237,569.3916665723357,793.7768717659076,0.9048807302630002,84.55184528602929,-0.7705416666666134,120,5,1021568.1250000003,-0.7705416666666134,-0.5264702380952401,569.3916666666724,0.0002318207190705,48.373648998968434,47.59252482383664,200.0000000016803,1162.9396176163757,1071.5507210044034,0.925708462901345,74.72372415066032,49.13797634095305,47.96629007825536,0.1307690979809277,0.9261907706211744,74.48077243255436,55.10541003921402,52.76203751381863
50R0P1MIMvRvK1qpqfGROchII6R2,661.7557282377327,69.84196331985518,419.9969533586336,661.7557282377327,69.84196331985518,419.9969533586336,398.7814610322624,62.26287486850631,266.2794054893341,398.7814610322624,62.26287486850631,266.2794054893341,472.4040020414197,107.59025951215769,387.744402145312,474.9730667520666,111.06975080393488,391.49175105727,262.97426720547026,7.579088451348873,153.7175478692995,262.97426720547026,7.579088451348873,153.7175478692995,1.577279146266746,1.577279146266746,702.3413710580404,10.0,468.3501939131916,702.3413710580404,10.0,468.3501939131916,616.1676192939482,53.31688428014399,376.6689883204237,616.1676192939482,53.31688428014399,376.6689883204237,520.0248464953621,41.15327895656616,251.6694001852935,521.6655994430104,10.0,273.18362797032574,334.6313443298,10.0,353.9939783142,334.6313443298,10.0,353.9939783142,398.7814610322624,62.26287486850631,266.2794054893341,398.7814610322624,62.26287486850631,266.2794054893341,0.2414457163032067,0.0669360525801388,-0.1745096637230678,0.2237624066923858,-0.0176833096108208,674.684284042697,440.2728244783688,0.9254305217953592,53.13534453904577,-1.5863925440606046,118,5,865678.840563997,-1.5863925440606046,-0.1071590320156147,665.0739130766495,0.0008379946933437,43.72842329023938,42.94729911510758,658.4099372536474,680.1688364996301,188.6081735947697,0.9920052222479262,17.398273213991857,34.56370960720631,33.392023344508615,0.0489510559326234,0.9921820619130852,17.20477757044285,40.451871109730725,38.10849858433532
5OOi73igsahMZ5IVKQwwyhnj4Cn2,590.261388588418,33.94763073709394,346.898433013396,590.261388588418,33.94763073709394,346.898433013396,383.18462452615546,23.85311980207708,219.36411703391727,383.18462452615546,23.85311980207708,219.36411703391727,411.0114253092791,33.18031802390524,425.0497942122296,411.0114253092791,33.18031802390524,425.0497942122296,207.0767640622625,10.09451093501686,127.53431597947868,207.0767640622625,10.09451093501686,127.53431597947868,1.5813818490640372,1.5813818490640372,629.800473645466,80.48513465039755,355.5667702824769,629.800473645466,80.48513465039755,355.5667702824769,605.8906819107544,10.0,283.06459433584405,605.8906819107544,10.0,283.06459433584405,458.8454069878711,10.0,549.4897103017986,458.8454069878711,10.0,549.4897103017986,417.8435706565056,28.876480823472207,277.2594955429047,417.8435706565056,28.876480823472207,277.2594955429047,383.18462452615546,23.85311980207708,219.36411703391727,383.18462452615546,23.85311980207708,219.36411703391727,0.3129993532014554,,,0.2925854140746248,-0.0204139391268306,647.4108085180342,439.2818369650056,0.5484520073282333,107.99768681054994,0.1473925438597014,120,5,880821.4583333049,0.1473925438597014,-0.4084732142857474,602.5541666666201,0.0001202837469688,50.821098084740086,50.039973909608285,200.00000000033052,819.1370805765539,1626.4292151145455,0.8078252142719919,70.45481814303028,48.5497162696469,47.3780300069492,0.0,0.8078252142719919,70.45481814303028,54.5497162696469,52.2063437442515
5Z68AKm9rIeeB2lVu3nJO7U31wk1,683.2977431592665,218.66197695431583,343.89323772646213,698.2560599972747,233.53064705808572,326.6748172703233,300.59614547612404,33.937848207022945,113.68549836202682,298.18618987810504,33.76217039254019,118.38969286785174,295.3542793449973,43.22861081710731,470.8296382124247,295.8483900173525,44.389035268509325,459.0089166866893,382.7015976831424,184.72412874729287,230.20773936443533,400.0698701191697,199.7684766655456,208.28512440247152,3.024952546114089,2.759318056808901,922.156527213375,240.60737477045404,139.70620868659512,950.3273963030368,244.7269478069139,125.98572675608868,423.0301782056708,10.0,569.4583518331253,422.6784606301514,10.0,548.5497618959171,372.6554294568443,46.828699166102936,468.9070505511314,374.9253590746967,48.03167538214323,434.1034866373536,305.6568077158836,62.236482717972585,215.02595350740197,305.6568077158836,62.236482717972585,215.02595350740197,300.59614547612404,33.937848207022945,113.68549836202682,298.18618987810504,33.76217039254019,118.38969286785174,0.6511976396917393,0.7773896861078554,0.1261920464161161,0.5832200093208211,-0.0679776303709182,414.2874999997113,709.1327284678976,0.9974589822379324,12.91933942507034,-0.8910767543873045,120,5,725103.8541665981,-0.8910767543873045,-0.432261904761757,414.2874999998603,0.0006431290898989,29.587253689568392,28.80612951443659,302.4500367900638,872.3078416996186,530.235221913173,0.9738450158867538,41.44896479221337,43.24462906413296,42.07294280143526,1.0,0.9974589822379324,12.91933942507034,37.58725368956839,35.24388116417299
5rXSa3anB5ejmFrnwUsTB82byup1,836.517565375775,137.29420277700527,236.085891429318,836.517565375775,137.29420277700527,236.085891429318,496.273761038953,109.67067739476803,216.55271268795977,488.5550860119569,109.34399813989094,225.85098154289824,684.2082757179029,224.2592384785991,238.996133254456,690.5811658552539,228.4916950524241,234.6912191368881,340.24380433682194,27.62352538223722,19.5331787413582,347.9624793638181,27.950204637114325,10.234909886419729,1.0902005728716242,1.0453170927861375,748.8237699867515,10.0,322.9768774201721,748.8237699867515,10.0,322.9768774201721,923.1286205108072,179.35091407829407,150.27518253350837,923.1286205108072,179.35091407829407,150.27518253350837,659.5167314545558,121.73905704299968,364.6252673769438,659.5167314545558,121.73905704299968,364.6252673769438,400.5824044685102,52.77038136467686,324.45667473932065,400.5824044685102,52.77038136467686,324.45667473932065,496.273761038953,109.67067739476803,216.55271268795977,488.5550860119569,109.34399813989094,225.85098154289824,0.127173753339124,0.0004561289771231,-0.1267176243620008,0.1208278515418179,-0.006345901797306,718.5449323395916,498.7968151722012,0.8507333540731868,64.26556105090661,-0.2014232456142264,119,5,958313.2427536248,-0.2014232456142264,-0.2994133885437475,712.8260869565622,0.0004074550921921,45.63023889795621,44.84911472282441,606.7551736743303,554.1976682587024,615.3105385093401,0.8694120804177133,60.11023389242056,46.96180108116875,45.790114818471054,0.4113805034058934,0.8872471741324316,55.854817080474206,52.22755772117694,49.88418519578154
5zxa5CMLGQSSonWOXqXf0QNS3PH3,677.9378594961809,87.06751821197727,401.0867631596615,677.9378594961809,87.06751821197727,401.0867631596615,381.2613729357996,43.942312631401286,165.47944700605436,381.2613729357996,43.942312631401286,165.47944700605436,427.4299897370781,65.58951233133493,433.8392299044472,429.6298923447183,67.28851515897378,423.6050192302328,296.67648656038125,43.12520558057599,235.60731615360712,296.67648656038125,43.12520558057599,235.60731615360712,2.423785977149096,2.423785977149096,694.8372709024416,125.22329380104134,435.8947940713499,694.8372709024416,125.22329380104134,435.8947940713499,671.4996765053605,33.60359014231694,355.8402432469188,671.4996765053605,33.60359014231694,355.8402432469188,622.0896450620979,157.9118004807509,334.8804755667621,651.2616900341527,173.26693040495047,268.2792695966976,426.4133523359636,28.713065210756778,218.14155405815373,426.4133523359636,28.713065210756778,218.14155405815373,381.2613729357996,43.942312631401286,165.47944700605436,381.2613729357996,43.942312631401286,165.47944700605436,0.3641046988930277,0.4078867189844622,0.0437820200914345,0.3460184151880582,-0.0180862837049695,546.7375003174875,677.1761420902436,0.9782506788513928,33.32122286682103,-0.6771030700598892,120,5,854352.9166620225,-0.6771030700598892,-0.4140049603226638,546.7375000019869,0.0005314065314958,39.06194517310093,38.28082099796913,435.83090306482217,777.3056202943153,565.5315471965483,0.9673653374776312,40.816676681692975,43.09090740096137,41.91922113826367,0.6351869998205806,0.9836088642929132,28.926947094205065,45.64773586084871,43.30436333545332
62fAfeQc27bZelkPX7G54T3gvci2,1195.824790448602,158.4290588270679,319.156609811622,1195.824790448602,158.4290588270679,319.156609811622,702.4229096673811,178.16663112807652,107.03636568516124,702.4229096673811,178.16663112807652,107.03636568516124,942.0468697882154,272.1265547694819,325.0649886066551,938.6017077311292,272.05114004598545,328.0930174777896,493.40188078122094,-19.73757230100861,212.1202441264608,493.40188078122094,-19.73757230100861,212.1202441264608,2.9817586552816566,2.9817586552816566,1239.701508724725,126.72276151701296,257.7041272768931,1239.701508724725,126.72276151701296,257.7041272768931,1147.1154563528082,176.351449529643,385.4269406925599,1147.1154563528082,176.351449529643,385.4269406925599,962.5278750624288,10.0,324.5628458404278,962.1758114601196,10.0,323.7562348121658,891.0853077645266,186.4247413978912,317.99015627607776,891.0853077645266,186.4247413978912,317.99015627607776,702.4229096673811,178.16663112807652,107.03636568516124,702.4229096673811,178.16663112807652,107.03636568516124,0.7274114859330943,0.915620918401754,0.1882094324686595,0.7304649006528858,0.0030534147197914,809.4541666339244,826.938395157508,0.8743563094581077,91.98341396383984,-0.9040416666664786,120,5,1342957.604166645,-0.9040416666664786,-0.5500357142858676,809.4541666665658,6.289859822015865e-06,49.21608277794365,48.434958602811854,200.00000000000003,1387.4170544541032,1563.6401651714543,0.9525273968934694,56.54063808052773,46.34959637672718,45.17791011402948,0.0,0.9525273968934694,56.54063808052773,52.34959637672718,50.00622385133178
6ABZuv4jbjgE0B8TeyUk6nwVb122,1204.8413261894675,226.8126550615228,239.7068680232522,1204.8413261894675,226.8126550615228,239.7068680232522,426.8203488175834,102.13801201641532,279.72522622546575,426.8203488175834,102.13801201641532,279.72522622546575,962.0119669119568,391.2971210751503,202.7213888857341,962.0119669119568,391.2971210751503,202.7213888857341,778.0209773718843,124.67464304510747,-40.018358202213534,778.0209773718843,124.67464304510747,-40.018358202213534,0.8569368993200573,0.8569368993200573,1222.828020797728,161.34416230762713,238.5141377832776,1222.828020797728,161.34416230762713,238.5141377832776,1225.0371636018283,297.49570744792595,202.6794317177964,1225.0371636018283,297.49570744792595,202.6794317177964,1006.0602383226916,220.9115403780385,303.8991041465544,1006.0602383226916,220.9115403780385,303.8991041465544,617.5973051081545,75.79515622179677,300.4197711291342,617.5973051081545,75.79515622179677,300.4197711291342,426.8203488175834,102.13801201641532,279.72522622546575,426.8203488175834,102.13801201641532,279.72522622546575,0.7813099724421069,0.9219465409852812,0.1406365685431742,0.7923645147968923,0.0110545423547854,706.5291666522701,841.9222176149033,0.9845338841547814,37.27036355305011,-0.6197456139848947,120,5,1171339.0625084438,-0.6197456139848947,-0.6250426587225899,706.5291666785876,0.0004437633351354,40.18198468019661,39.400860505064806,344.2871517671234,1230.1705555895687,939.9791773151048,0.966773474309449,54.62802074318808,46.005469515332486,44.83378325263479,1.0,0.9845338841547814,37.27036355305011,48.18198468019661,45.83861215480121
6OwhwWQDThSPHTVAeXugohrYuje2,1727.6223341059624,475.7206555692993,17.118722985862245,1727.6223341059624,475.7206555692993,17.118722985862245,430.84778806705646,10.0,383.7062362843719,430.84778806705646,10.0,383.7062362843719,1190.6378902272695,539.2361462137646,167.99695816909906,1220.9546449223255,541.0058903268315,131.4512207144255,1296.774546038906,465.7206555692993,-366.5875132985096,1296.774546038906,465.7206555692993,-366.5875132985096,0.044614138022962,0.044614138022962,1784.4530612078154,451.9201491561937,21.010480107512,1784.4530612078154,451.9201491561937,21.010480107512,1663.622604561261,490.6018531377072,20.70362072143746,1663.622604561261,490.6018531377072,20.70362072143746,1176.400632250111,335.19816680214075,288.59105621038185,1419.4670590852195,350.34401614874724,32.22515381935892,820.1947723087385,283.25731972026097,213.9282248974909,820.1947723087385,283.25731972026097,213.9282248974909,430.84778806705646,10.0,383.7062362843719,430.84778806705646,10.0,383.7062362843719,0.7629860846115563,0.7570401895854133,-0.0059458950261429,0.7709329451046819,0.0079468604931256,814.530435050565,933.7107693429446,0.9553352443277782,80.07220013152214,-1.3673577421235277,117,5,1340106.6576069142,-1.3673577421235277,-0.6717465062238911,814.5304347743158,0.0008420155305047,47.829287293081656,47.048163117949855,624.4356985399561,1326.475611033423,583.4652618100707,0.9869258159271744,43.32180847093124,43.6865616805115,42.514875417813805,0.082569242186778,0.9871837921261252,42.89227204459055,49.58691670886292,47.24354418346752
6WFCyGwk71XLPBmbe4Vav3eotVm1,444.2368229774772,72.3888732750115,391.1260518625893,451.1186983261172,65.46121466728422,390.1186182025695,383.6732425389397,51.29009627331523,91.29264490954226,383.6732425389397,51.29009627331523,91.29264490954226,358.1857394043612,34.49448861757271,312.72867175689737,359.7663925564375,36.05105651950705,309.0872522742168,60.563580438537485,21.09877700169628,299.833406953047,67.44545578717748,14.171118393968996,298.82597329302723,4.284310661062984,4.273275449398145,453.4551196896032,61.14499540602394,514.1301715525557,391.1170090218874,10.0,585.6143575417889,471.9074880070594,95.068606310304,236.75042677103443,490.751020083596,87.96202095904965,214.95816336534904,472.4798198323553,97.07946109604303,193.15218444877203,472.4798198323553,97.07946109604303,193.15218444877203,338.0313529585177,27.314467133931576,203.8557259032726,338.0313529585177,27.314467133931576,203.8557259032726,383.6732425389397,51.29009627331523,91.29264490954226,383.6732425389397,51.29009627331523,91.29264490954226,0.3447641289338287,0.7122371615448894,0.3674730326110607,0.2771681049310685,-0.0675960240027601,484.4690929853112,446.13246524666,0.8798962512016688,58.91754907175274,-1.1351236647335643,118,5,673066.9429559206,-1.1351236647335643,-0.1975215665960081,474.9652174244756,0.0005801358923679,44.76138993169022,43.98026575655842,497.55650650867335,578.2194118699849,196.15284675697285,0.954706802113888,36.181193019085605,41.88539453969814,40.71370827700044,0.0,0.954706802113888,36.181193019085605,47.88539453969814,45.542022014302745
7cvQFrzIDEVAkFCcGAHZPUvJ2MF3,800.8360692559914,133.48787974963687,409.1133189048146,960.4279361456868,256.4104627182026,266.2225033532588,427.5144004653956,105.82645077051744,51.82058658965723,427.5144004653956,105.82645077051744,51.82058658965723,393.69427255018206,87.74039236078336,524.3286614139428,389.13563737717175,84.82996300962195,530.4254671312698,373.3216687905958,27.66142897911942,357.29273231515737,532.913535680291,150.58401194768516,214.4019167636015,7.894802931205505,5.137388842417958,1035.263672053072,222.77669035379876,204.67569158598707,1079.942824179,207.70690326484288,197.569793618234,695.7621698495451,82.70819320392702,484.250738257588,695.7621698495451,82.70819320392702,484.250738257588,623.5685609057272,140.2354413649652,366.5979834827093,623.5685609057272,140.2354413649652,366.5979834827093,398.5860378172188,51.60770604898264,302.2485669914385,398.5860378172188,51.60770604898264,302.2485669914385,427.5144004653956,105.82645077051744,51.82058658965723,427.5144004653956,105.82645077051744,51.82058658965723,0.5016552184572307,0.6680054793276556,0.1663502608704249,0.4648662322240431,-0.0367889862331876,479.33750000631846,820.4354811645588,0.9973524666950628,14.860816189695386,-1.0201425437132514,120,5,891457.3958459,-1.0201425437132514,-0.5392291666851158,479.33750000596046,0.0005199198374812,30.987279630636024,30.206155455504224,267.8576387438314,1076.0736361991314,716.1100763771561,0.9906125875315878,27.983040223582208,39.315986203604,38.1442999409063,1.0,0.9973524666950628,14.860816189695386,38.98727963063602,36.64390710524063
80UJMJbCOMgs6YVpsMgXfYTzw6o2,773.6069799064908,124.37897628255666,259.67432681266195,780.2965375088581,127.40721236600066,239.48929946094452,412.23015621972087,43.87425890488519,105.73699870237692,410.0059962505773,45.87547532373972,112.29180166539231,461.7887009223898,79.50777675916837,348.7636104308578,483.811618895312,90.26266416944894,330.33439248868365,361.3768236867699,80.50471737767148,153.93732811028502,370.2905412582808,81.53173704226094,127.19749779555224,2.4558511211726364,2.1327407335984865,838.0007270838173,150.17849061025956,272.0667231029372,848.7631885994874,154.84472064428766,237.05184214629696,756.6420897336694,118.85013250896634,199.8468092885314,756.6420897336694,118.85013250896634,199.8468092885314,583.3979912691507,56.50608957987952,239.1277564792456,583.3979912691507,56.50608957987952,239.1277564792456,473.2250370469274,64.1654741169937,172.45498310733183,470.02102130403415,10.0,187.5501451550041,412.23015621972087,43.87425890488519,105.73699870237692,410.0059962505773,45.87547532373972,112.29180166539231,0.3995455854393584,0.4572654388307976,0.0577198533914392,0.3837720528882198,-0.0157735325511385,557.0903616603309,568.4732700882612,0.951138140473658,46.78127417220374,-1.1298706140352428,120,5,806081.3541666411,-1.1298706140352428,-0.3204712301587489,517.9666666667132,0.0005681289781042,42.454829983268624,41.67370580813682,483.7968810823271,702.059022493077,404.0087268290786,0.9990916017440012,6.378597479175332,24.52948242340094,23.35779616070324,0.0,0.9990916017440012,6.378597479175332,30.52948242340094,28.18610989800554
87w5Le0CgZhSfYAaOH3Xd2fc98l1,960.0546759314484,105.1586187478135,550.0214991497775,1184.4898438256057,296.2634138515264,345.18360711205213,777.8288962673181,192.16738892863216,37.112974942273205,777.8288962673181,192.16738892863216,37.112974942273205,712.7537816512238,156.2819475393574,492.0734418044876,707.741114290386,154.60937030837846,499.5289401570465,182.2257796641302,-87.00877018081866,512.9085242075042,406.6609475582874,104.09602492289426,308.07063216977895,14.820194285295097,9.300887564226866,987.790763398586,126.06572875346885,522.090604941035,979.8558335133245,126.25636428473445,543.2097303641401,1196.248182730111,309.9483963515339,314.0256460584789,1231.168970665169,303.9422619648519,305.1288749332696,942.5725417387898,285.91932170171094,246.71648641228427,942.5725417387898,285.91932170171094,246.71648641228427,635.4246298176165,10.0,364.1963177568105,635.4246298176165,10.0,364.1963177568105,777.8288962673181,192.16738892863216,37.112974942273205,777.8288962673181,192.16738892863216,37.112974942273205,0.6930248479470246,0.8343197434601117,0.1412948955130871,0.6805991419143887,-0.0124257060326358,814.9291666537,759.1998223038125,0.9593413998162066,55.64129328062324,-1.3500285087710466,120,5,1226170.1041665357,-1.3500285087710466,-0.4004880952387165,814.929166666232,0.0006404913068643,44.18925610505874,43.40813192992694,714.3883064401663,930.0167810963726,520.9608173799925,0.9616535075957556,54.03607887753792,45.89651950828368,44.724833245585984,0.3893921418116546,0.9632382784026038,52.90770525736596,51.68548985296352,49.34211732756812
8bwaafIhKVMNBoHaXFcY8HirS9u2,926.0194954951676,194.22035649426545,93.31394601136871,927.0826310603644,197.26723942128223,92.22138041485428,402.5965528890406,69.21997588703147,112.16772745217573,402.5965528890406,69.21997588703147,112.16772745217573,590.224618837063,189.1340254903732,220.1183514960653,571.9930521885834,175.84606333292825,232.49668437503007,523.422942606127,125.00038060723396,-18.85378144080701,524.4860781713238,128.0472635342508,-19.946347037321445,0.8319143850993541,0.822173922121888,779.4002593064183,10.0,263.10055175266285,778.8694975427129,10.0,264.5810270701504,986.11501973512,222.4018881210493,10.0,986.11501973512,222.4018881210493,10.0,575.4465442718301,10.0,286.38300840597293,575.6282523300092,10.0,267.5232015476864,499.6778793530903,33.043835114035886,136.75292526428456,499.6778793530903,33.043835114035886,136.75292526428456,402.5965528890406,69.21997588703147,112.16772745217573,402.5965528890406,69.21997588703147,112.16772745217573,0.4000973148774174,0.8144797447024642,0.4143824298250468,0.3663937977136628,-0.0337035171637545,578.1177503265102,552.4573281351115,0.9516863246353732,44.90574711800525,-0.7363662281736992,120,5,811379.7916663189,-0.7363662281736992,-0.3594990079554301,514.7666666507721,0.0004445813947382,42.045657847309776,41.264533672177976,406.1222678468452,719.5420504694575,600.1246283220229,0.9845773238093776,25.371535871538903,38.33627910664829,37.16459284395059,0.2659375834961359,0.989546390470596,20.888152279552127,42.39182121659039,40.04844869119498
8cOQBMgQEYSlJ4CK60pFMmBVEBV2,1320.4797787159855,245.20451325444824,264.1746049794678,1320.4797787159855,245.20451325444824,264.1746049794678,580.3323197332182,51.08815275726499,263.8673687055591,580.3323197332182,51.08815275726499,263.8673687055591,1061.3673864026694,397.1673497501352,249.0891167053059,1061.3673864026694,397.1673497501352,249.0891167053059,740.1474589827675,194.11636049718325,0.3072362739086998,740.1474589827675,194.11636049718325,0.3072362739086998,1.0011643587284622,1.0011643587284622,1392.7059832290468,149.1232808882163,324.19736872216555,1392.7059832290468,149.1232808882163,324.19736872216555,1438.5578815057925,308.97269763082363,13.723955089151,1438.5578815057925,308.97269763082363,13.723955089151,1227.880432422773,156.91989173621573,259.5882971412896,1227.880432422773,156.91989173621573,259.5882971412896,570.1941273241584,10.0,470.18664005790856,570.1941273241584,10.0,470.18664005790856,580.3323197332182,51.08815275726499,263.8673687055591,580.3323197332182,51.08815275726499,263.8673687055591,0.1700832829745277,,,0.1634066844202402,-0.0066765985542874,844.204166590948,863.2160385575273,0.9496907946250258,71.41928031832926,-0.826692982828406,119,5,1323479.660292596,-0.826692982828406,-0.6593359644751123,844.2041666110357,0.0005934138451536,46.68567865362931,45.90455447849751,639.3805814187072,1134.5675174462228,673.2889336853185,0.9433443845541694,75.79022938228607,49.2796938437017,48.108007581004,0.9928288791011184,0.9496911257379056,71.41904529292668,54.6856457457383,52.3422732203429
9NTZ091xWyOO8DgzyTGY0O3i8IR2,579.6982986395603,10.0,389.4535178529632,579.44506072881,10.0,393.0630239843658,421.4031100182936,58.42338821176225,106.05336809477711,412.40523782181407,55.95362246139487,114.15438470689944,453.3078533784436,85.81227747626572,330.7545889323693,451.6791367540248,86.6761091256928,336.754022756131,158.2951886212668,-48.42338821176225,283.4001497581861,167.03982290699588,-45.95362246139487,278.9086392774664,3.672240918411179,3.443258224321271,616.377895954731,10.0,378.70852897582256,615.7395263231045,10.0,387.2919938401241,574.7989515089712,10.0,368.47338395872464,574.7989515089712,10.0,368.47338395872464,554.1758009004672,62.3987477570755,296.10726024196305,548.4030253478622,60.65272291602368,306.65595443131207,425.6949975003046,76.71288612824782,178.45936069275382,425.6949975003046,76.71288612824782,178.45936069275382,421.4031100182936,58.42338821176225,106.05336809477711,412.40523782181407,55.95362246139487,114.15438470689944,0.3714662900958511,0.5808980960092157,0.2094318059133646,0.3931312889113305,0.0216649988154794,547.9929863011805,553.5144259989181,0.9466315827201072,42.90739423769435,-0.5824429824560662,120,5,789086.8749999974,-0.5824429824560662,-0.3257212301587229,527.4583333332945,0.0004487243043524,41.59044170934733,40.80931753421553,436.7816987108838,637.6674249400292,559.2253084848669,0.9684062284021072,33.01343512802551,40.96914603705229,39.79745977435459,0.3710497820046759,0.980030436659121,26.24667316686629,44.67539244505552,42.33201991966013
9Xz1RIwnPXgyRqmucudW9VeuDnq1,747.4348110025011,178.3159274310198,588.2952144433946,771.5944817012771,197.58374564725548,576.1445759006476,492.70583578255776,10.0,310.66846878093605,492.70583578255776,10.0,310.66846878093605,536.9037112938508,59.24019494600383,592.5006672335041,533.4315401455569,56.60113956789572,595.5347232614733,254.7289752199433,168.3159274310198,277.6267456624585,278.88864591871936,187.58374564725548,265.4761071197116,1.8936431391053836,1.854531868526731,790.1072390260344,158.34074359556158,621.488483260656,848.6904504916171,196.0714473043168,590.8079614751781,700.6674060452223,174.48503306066752,559.266079006701,700.6674060452223,174.48503306066752,559.266079006701,727.9039722075685,132.15629649674867,443.2530782495225,727.9039722075685,132.15629649674867,443.2530782495225,534.3509676341631,66.16145439311109,470.2249679818677,534.2393464178032,65.97865754807401,448.13279106502,492.70583578255776,10.0,310.66846878093605,492.70583578255776,10.0,310.66846878093605,0.4260984920865917,0.748219705041254,0.3221212129546623,0.4001914094249199,-0.0259070826616718,873.3833500431622,574.708360320992,0.8897667347742594,69.69798077800189,-0.932730739893295,117,5,1184656.5217391297,-0.932730739893295,-0.3982168737060185,803.3478260869414,0.000356906773644,46.44171347160348,45.66058929647168,685.7455006471631,761.4724997561156,656.882654506668,0.992583616501986,18.078398274209817,34.94717760011396,33.775491337416256,0.0,0.992583616501986,18.078398274209817,40.94717760011396,38.60380507471856
9g0uWFg7uhR46Q0VoG6MzqHOUL12,1040.4021257620352,359.4659705706181,100.47533288777308,1130.785081360814,374.75915774069847,33.57554542362233,415.218829584062,10.0,325.49417239199875,414.41316612078,10.0,334.2325203916492,505.84747891282126,104.79052769241108,490.60681533892273,495.46683473980886,97.96823135562676,509.488305118295,625.1832961779733,349.4659705706181,-225.01883950422567,716.371915240034,364.75915774069847,-300.6569749680269,0.3086855047185568,0.1004556510069066,1117.5513381545743,287.9435129474637,14.47282900911782,,,,1046.9541256235818,421.5770408450011,101.4234425957038,1151.995051453326,439.5643793450292,28.03114717310432,653.3056588556324,94.11703329192504,451.8628185637303,653.3056588556324,94.11703329192504,451.8628185637303,380.75308504078345,10.0,493.2285808758241,380.75308504078345,10.0,493.2285808758241,415.218829584062,10.0,325.49417239199875,414.41316612078,10.0,334.2325203916492,0.5139469681350493,0.608979536865232,0.0950325687301827,0.4755718077592996,-0.0383751603757496,795.5489941322188,481.3992472708342,0.737995543827543,83.69667908325711,-0.1226279175662064,114,5,1064326.3885933356,-0.1226279175662064,-0.3788256125155201,740.69565216873,0.0001318396798782,48.27199300283653,47.49086882770473,238.37526937574412,960.5371311501638,1791.3156328957468,0.9397636256173963,40.13130656518125,42.92156742063823,41.74988115794053,0.0450616394674964,0.9402139068936204,39.98102965170372,48.88405082910299,46.5406783037076
9l7DjYLs0XdgwykPZR5E01KTZfu2,984.21050817259,300.24465087517507,508.9205413955426,967.457979907793,296.9692257348484,526.2871473644637,,,,,,,560.0098591987319,72.65949905448379,672.6351300350337,553.7443202671213,67.64431577425282,678.5874880743592,,,,,,,,,,,,,,,,,,,,,803.8604333221931,213.57406894529385,334.8294466420392,803.8604333221931,213.57406894529385,334.8294466420392,,,,,,,,,,,,,0.5619547922972704,0.82438465702652,0.2624298647292495,0.5140099447946778,-0.0479448475025926,803.5133334009839,730.9429042771334,0.7435336434135563,140.06973401232744,-1.98339459830828,87,5,1283569.547986338,-1.98339459830828,-0.4101146591778231,803.5133333444595,0.000398113761754,53.42140398686686,52.64027981173506,796.9187506660998,870.869641597323,455.3936372144239,0.8772969560944621,96.88505074745888,51.73525231943077,50.563566056733066,0.0,0.8772969560944621,96.88505074745888,57.73525231943077,55.39187979403536
A9AEg0g6c2P1Bk72HLmnK3oWJ9B2,892.3054261584188,166.6221763986485,198.43504304232,901.935928379794,168.6663397182418,194.9485857555809,327.16234030166805,28.12443058098173,179.65802015699697,327.16234030166805,28.12443058098173,179.65802015699697,570.3044959311617,214.81108117157552,285.4717545343279,564.957895270158,213.9903231571817,290.77785088334235,565.1430858567508,138.49774581766675,18.77702288532302,574.7735880781258,140.54190913726006,15.290565598583896,1.104515361289824,1.085109284769041,768.5954369546007,50.749584016762,337.0986637752562,821.4370578301947,98.91295454656463,297.43891813629426,958.6047692985702,191.25250183724503,117.20953908765584,958.6047692985702,191.25250183724503,117.20953908765584,494.1047761440853,56.17434095737493,350.53923065852274,481.9928472001964,48.53524767592143,359.05218871727965,446.8401376264157,25.471930123981544,299.0252566535104,446.8401376264157,25.471930123981544,299.0252566535104,327.16234030166805,28.12443058098173,179.65802015699697,327.16234030166805,28.12443058098173,179.65802015699697,0.5028999342745383,0.3903324653905551,-0.1125674688839831,0.4988219291767927,-0.0040780050977455,506.8208333234784,719.4839784510582,0.8940175391807892,72.04134456331649,-1.0834473683384411,120,5,867491.9791842501,-1.0834473683384411,-0.3786498015977089,506.8208333353202,0.0003283911404375,46.77240184255133,45.99127766741953,339.6211557912818,834.4190551348788,760.9715983349823,0.9717974250208764,37.162865318499065,42.15310018575235,40.98141392305465,0.0,0.9717974250208764,37.162865318499065,48.15310018575235,45.80972766035696
ASGvwW80q7VY7xFaLGZhVuErUQu2,1392.9236062107557,345.6388648472264,184.91505288143117,1392.9236062107557,345.6388648472264,184.91505288143117,635.2652713994843,184.2599079945762,274.6931356679714,720.3418462996392,196.60909648909671,168.75108496623156,1134.2643846604485,427.7617315936575,183.28302677475187,1116.5174681937,413.9582757359829,204.32617096613916,757.6583348112714,161.3789568526502,-89.77808278654024,672.5817599111165,149.02976835812967,16.163967915199578,0.6731695440141712,1.0957858606860758,1254.2431910374496,318.47803092188906,326.26531999742133,1254.2431910374496,318.47803092188906,326.26531999742133,1565.7644488150042,339.1058018588143,10.0,1565.7644488150042,339.1058018588143,10.0,1166.3237271178475,313.0556491498307,188.75980218283496,1213.283866099246,342.8305786295039,144.3069276093999,791.6034716356006,273.02900672524805,421.9026045502549,791.6034716356006,273.02900672524805,421.9026045502549,635.2652713994843,184.2599079945762,274.6931356679714,720.3418462996392,196.60909648909671,168.75108496623156,0.1618857976486138,0.280133102151826,0.1182473045032121,0.1394322522643409,-0.0224535453842729,909.9708333089336,796.2639923201475,0.9354722342787396,63.62314510971249,-0.946354825570442,114,5,1399943.5206760785,-0.946354825570442,-0.4962013887378562,909.9708333015442,0.0002206764741324,45.52977320963791,44.74864903450611,388.70552482113743,1260.9323798122875,1362.524975937734,0.9805742233258804,34.90848617637862,41.52729956566822,40.355613302970525,0.0,0.9805742233258804,34.90848617637862,47.52729956566822,45.18392704027282
AUKCfn4HzgVB7m6LNnh2gQb7G5s2,779.1349797378545,57.36236720502432,546.2349457350135,779.1349797378545,57.36236720502432,546.2349457350135,372.5801250957596,17.920644816569645,292.39793910599167,372.427306711274,17.84833612491856,281.14237165512816,548.1845494411403,181.30071697770035,516.8856507317851,535.8755910666112,173.92036595492092,530.9324202999129,406.5548546420948,39.44172238845468,253.83700662902183,406.7076730265805,39.51403108010576,265.09257407988537,1.8681217364429104,1.9429122067913307,813.4743658160945,51.82051456297141,490.57024068879593,813.4743658160945,51.82051456297141,490.57024068879593,728.2704421610007,10.0,618.3960168833883,728.2704421610007,10.0,618.3960168833883,677.8913386118041,10.0,381.2065174027624,677.4988190127623,10.0,384.6397732211466,427.6642455039959,10.0,522.732056772573,427.6642455039959,10.0,522.732056772573,372.5801250957596,17.920644816569645,292.39793910599167,372.427306711274,17.84833612491856,281.14237165512816,0.1335995791998852,0.6281761836363725,0.4945766044364872,0.0888729907354332,-0.044726588464452,664.9708333954451,752.6975993687944,0.8987810848896582,79.16968371784893,-1.053728070144066,120,5,1099020.8332876363,-1.053728070144066,-0.4433373015787868,664.9708333015442,0.0002719217591219,47.71593444200612,46.93481026687432,310.106759267851,1082.836834203157,1080.3899606665814,0.9487135228980508,56.35461731130192,46.31664176992286,45.14495550722516,0.0,0.9487135228980508,56.35461731130192,52.31664176992286,49.97326924452746
AsXBOflrszVNKoFqbN61bMJqS0k2,1243.3810956925995,212.8699567220845,156.7246432036127,1243.3810956925995,212.8699567220845,156.7246432036127,558.9026831657396,41.3669031006867,212.7200772114943,558.9026831657396,41.3669031006867,212.7200772114943,1010.2866783684572,334.4827044662981,133.5645107221513,1010.2866783684572,334.4827044662981,133.5645107221513,684.4784125268599,171.50305362139784,-55.99543400788161,684.4784125268599,171.50305362139784,-55.99543400788161,0.7367646968639973,0.7367646968639973,1447.4812541296797,309.6380419659644,19.147912640404552,1447.4812541296797,309.6380419659644,19.147912640404552,1323.5979106749478,180.46060264400893,10.0,1323.5979106749478,180.46060264400893,10.0,1077.104302436651,147.8260413334285,183.98923798046837,1077.104302436651,147.8260413334285,183.98923798046837,650.7261982859058,35.22763913993542,235.6222497530749,650.7261982859058,35.22763913993542,235.6222497530749,558.9026831657396,41.3669031006867,212.7200772114943,558.9026831657396,41.3669031006867,212.7200772114943,0.6596902564418895,0.999996845698747,0.3403065892568575,0.6494166131951914,-0.0102736432466981,771.6208330477352,735.0999443794022,0.988838182609594,28.301131568447765,-0.7953815789677576,120,5,1154122.0833322655,-0.7953815789677576,-0.4934841269940609,771.6208333224058,0.0006309696735341,37.42901788600627,36.64789371087447,641.7142375757289,919.5409388366398,562.631371688494,0.96540282307535,49.82607472856618,45.08538435932784,43.91369809663014,1.0,0.988838182609594,28.301131568447765,45.42901788600627,43.08564536061087
AyAnuCaltBbpEYbudoyNzTvXlcC2,1746.2722093872264,675.7456077412065,36.28954470481227,,,,,,,,,,548.7145282672343,10.0,891.6605976935302,548.394673041874,10.0,847.8709230609015,,,,,,,,,,,,,,,,,,,,,,,,,,,,,,,,,,,,,,,,,,,,1070.0222221180595,635.9124526191572,0.8492824355903315,133.6631756067884,-1.330259011195321,48,5,1402091.848486391,-1.330259011195321,-0.3665634920625461,1070.0222222208977,0.0013529186905979,52.95323020642438,52.17210603129258,953.8017053567062,1072.7106894966362,352.2204898497815,0.8937053827252801,112.2497746020124,53.20726518620459,52.03557892350689,0.3129492147383946,0.905335003902629,105.93136097362898,58.62791346384165,56.28454093844624
BbwUTWswjtPWhb5DvLAmh9Hdpyl2,1039.4605652604516,292.38880693536373,505.1629617541734,1053.492042141624,299.70749769082283,464.3694355334611,404.73517174933903,10.0,335.9434800139136,404.9164671288369,10.0,285.1018613937284,709.0094591939144,296.21184863597847,519.9216254434729,720.142996491632,292.8344137380035,495.1661831830195,634.7253935111125,282.38880693536373,169.21948174025982,648.5755750127871,289.70749769082283,179.2675741397327,1.503714141834964,1.628784299279486,,,,,,,942.2026929216876,269.59453570602733,499.0872657467816,972.1207004728986,281.3899978875413,414.4905241709289,951.8048277750876,203.97097636212803,339.4309458512375,951.8048277750876,203.97097636212803,339.4309458512375,719.9916694558048,281.0641352548939,388.3991100486332,656.5209628999204,246.4604907850268,418.385938100715,404.73517174933903,10.0,335.9434800139136,404.9164671288369,10.0,285.1018613937284,0.153653866981057,0.1392495059754241,-0.0144043610056329,0.1698475616161315,0.0161936946350745,740.6695652673178,912.9921432741788,0.9690511403802176,55.35099818759107,-1.4780345029240622,105,5,1275239.1852217724,-1.4780345029240622,-0.6119089591567587,740.6695652173872,0.0004135492045579,44.136946930948525,43.355822755816725,479.7238983329665,1219.827275480417,805.6989987802489,0.9836240977475303,40.2629647064504,42.95432056508137,41.78263430238367,0.0,0.9836240977475303,40.2629647064504,48.95432056508137,46.610948039685965
BcCTlXWx6ARh4rBtkdWRgZH3C7H2,941.975630748232,113.73323235282578,278.013473430383,937.6960220844804,113.10502208018885,284.1143013421733,462.98028964926624,28.73504841399689,115.16773779762968,462.98028964926624,28.73504841399689,115.16773779762968,467.4952641539173,36.17952075477072,486.9535510325215,467.0337484687714,35.889000909286175,485.8640326240788,478.99534109896575,84.9981839388289,162.8457356327533,474.7157324352141,84.36997366619195,168.9465635445436,2.4139874477599133,2.466960858790271,894.6249063004394,10.0,341.3441836740891,894.6249063004394,10.0,341.3441836740891,921.6447603915695,126.7939450647858,282.3791949871084,912.9430251972034,126.36618212737822,294.0986044236072,620.5844053540243,10.0,390.163938009027,620.5844053540243,10.0,390.163938009027,476.2368054267629,40.29281355867907,267.08399222407365,476.2368054267629,40.29281355867907,267.08399222407365,462.98028964926624,28.73504841399689,115.16773779762968,462.98028964926624,28.73504841399689,115.16773779762968,0.1714839663350045,0.653215462240392,0.4817314959053874,0.1156001426166604,-0.0558838237183441,578.1541666440047,743.685248659786,0.9912132331580916,24.11347442429947,-0.9312982457510192,120,5,947664.5833390454,-0.9312982457510192,-0.4513452380611782,578.1541666785876,0.0005321379845636,35.827707889985035,35.046583714853234,427.2476532446466,917.5891252227902,632.6493475061474,0.9812378903531208,35.23595725094548,41.62067074025832,40.44898447756062,0.8389781984171293,0.991594733937194,23.58419039343919,43.60576588966164,41.262393364266245
C4HWhqUIJ3Rl6SboyJGqlrXFAJJ2,943.7089296532854,168.48104930584796,213.2063158436636,928.22100515551,160.32145389564985,220.38286619864155,330.7795667738424,22.265165674257176,73.1220857985524,330.7795667738424,22.265165674257176,73.1220857985524,552.8922672918125,247.7308215240521,298.41492325407194,528.5452181624038,229.51324328515832,314.3536508645435,612.929362879443,146.21588363159077,140.08423004511116,597.4414383816676,138.05628822139266,147.26078040008915,2.915758125814901,3.013902896667705,915.1964714752708,113.79641253020075,245.6040191111456,900.1931499105383,105.31631763856238,243.57943296881945,959.3919088124692,200.24192884209023,193.6213392150777,959.3919088124692,200.24192884209023,193.6213392150777,688.7496608576567,137.41560243473637,244.9677320570888,688.7496608576567,137.41560243473637,244.9677320570888,509.1898580596917,84.77697250218885,96.0059330414557,509.1898580596917,84.77697250218885,96.0059330414557,330.7795667738424,22.265165674257176,73.1220857985524,330.7795667738424,22.265165674257176,73.1220857985524,0.3041022953450448,0.7116246949495124,0.4075223996044675,0.2713951322247606,-0.0327071631202842,403.89999998041617,817.9115959352325,0.9843032507498204,37.767427793705714,-0.9521732455544296,120,5,805758.02083835,-0.9521732455544296,-0.5524990079942205,403.8999999761581,0.0005629215431432,40.31447032570692,39.53334615057512,200.00000000000003,1095.4424382525056,688.8166762236577,0.9732863790092804,49.26958761261614,44.97307006571912,43.80138380302142,1.0,0.9843032507498204,37.767427793705714,48.31447032570692,45.971097800311526
CDEoAyvS8feXLKMKsaZah9agEhF3,1126.4558846556758,331.27607007803056,190.3865166733607,1126.4558846556758,331.27607007803056,190.3865166733607,421.700361480662,69.67056140474232,201.32600226497505,421.700361480662,69.67056140474232,201.32600226497505,531.6532972555639,128.06973620343015,519.6530107494282,531.6532972555639,128.06973620343015,519.6530107494282,704.7555231750139,261.6055086732882,-10.939485591614329,704.7555231750139,261.6055086732882,-10.939485591614329,0.945662828106941,0.945662828106941,1347.4810782090294,327.2522564480411,13.431792851067486,1347.4810782090294,327.2522564480411,13.431792851067486,768.4303749044287,10.0,504.5235823513519,768.4303749044287,10.0,504.5235823513519,616.8107746891799,10.0,528.253648607721,616.8107746891799,10.0,528.253648607721,522.4960036065522,46.60674964702213,332.0556918931283,522.4960036065522,46.60674964702213,332.0556918931283,421.700361480662,69.67056140474232,201.32600226497505,421.700361480662,69.67056140474232,201.32600226497505,0.6459824456590241,0.999999332388934,0.3540168867299098,0.6227316941163312,-0.0232507515426928,623.0249998741808,811.1413803050552,0.9967872773700514,15.53950422652964,-0.8620942982459596,120,5,1056247.812500015,-0.8620942982459596,-0.5522847222221006,623.025000000062,0.000422645807244,31.433854413758677,30.652730238626877,356.50615776867915,1084.5763174217234,836.6184295150846,0.9936211640574616,21.896326437480703,36.86318880171305,35.69150253901535,0.6642636590988434,0.997873582101336,12.642263916999289,37.37045480038442,35.02708227498903
CGyTPhevTbSvVnZ8qSP0NtWuhgw1,663.0212358369756,121.81030417642909,502.0714480586557,663.0212358369756,121.81030417642909,502.0714480586557,522.1264125090942,142.07203832659997,10.0,522.1264125090942,142.07203832659997,10.0,455.2293365707196,111.30853222998805,434.2159458864196,455.2293365707196,111.30853222998805,434.2159458864196,140.89482332788145,-20.26173415017088,492.0714480586557,140.89482332788145,-20.26173415017088,492.0714480586557,50.20714480586557,50.20714480586557,736.835866645474,10.0,552.947071472116,736.835866645474,10.0,552.947071472116,617.2203456037894,126.05458455652354,423.1872362032364,617.2203456037894,126.05458455652354,423.1872362032364,493.2214238045974,18.01718768304007,298.95746071887567,493.2214238045974,18.01718768304007,298.95746071887567,433.8012920273076,10.0,358.88103825851795,433.8012920273076,10.0,358.88103825851795,522.1264125090942,142.07203832659997,10.0,522.1264125090942,142.07203832659997,10.0,0.2921936737502519,,,0.2910087053552337,-0.0011849683950181,532.1333333292072,702.5619981005502,0.8231690415320705,107.95984678239336,-1.9639166667900576,120,5,889132.8124947846,-1.9639166667900576,-0.3097113094774504,532.1333333452543,0.0006071899282446,50.81759368941621,50.03646951428441,580.516426894693,822.0538939391729,276.01312910872844,0.931058879803097,67.40968177988991,48.10788654187982,46.93620027918213,0.0,0.931058879803097,67.40968177988991,54.10788654187982,51.764514016484426
CN1ySCsiSLN4m9yh9fS4s5p6T8k1,1279.17835776489,251.9606622654066,315.0339038366065,1276.956759414134,258.7926011611839,321.756332261516,597.5232316989743,181.9657070044734,249.48604433647512,597.5232316989743,181.9657070044734,249.48604433647512,1083.9367121589037,399.56065141715766,262.48525790250034,1065.4001200014238,395.26970706640526,270.04001295627666,681.6551260659157,69.99495526093321,65.54785950013138,679.4335277151597,76.8268941567105,72.27028792504086,1.2627315675089574,1.289676675572169,1392.0319588865102,214.1755352806681,366.4762439821112,1342.694047727267,180.60078840463905,412.2352871949612,1246.9268989333605,256.95974802932955,182.98189903565935,1253.9492013788977,273.8912233708575,181.16041337915416,933.1138380248748,176.24672032730209,479.4173893751054,1203.7882141750808,390.6296962872296,220.0696379763976,793.7064186864877,97.69560744605228,490.4822916750762,1152.549575374638,343.8311558927149,90.54291202499174,597.5232316989743,181.9657070044734,249.48604433647512,597.5232316989743,181.9657070044734,249.48604433647512,0.172887751674533,0.2452058023418868,0.0723180506673538,0.1719295296805945,-0.0009582219939384,847.0086958295547,879.659649086779,0.8774134104057298,103.20118163443884,-1.28364683447746,117,5,1416484.0489130465,-1.28364683447746,-0.6426930210490056,847.0086956521719,0.0001461864795413,50.36680302928025,49.58567885414845,200.00000000000048,1509.1521110886915,1481.02426577013,0.9198046815947208,83.47139976976196,50.245040554568135,49.07335429187044,0.0,0.9198046815947208,83.47139976976196,56.245040554568135,53.90166802917274
CUNlBEszJVRGK1jWlTaOaCqpDg53,1027.0533797895305,318.0267237876533,348.09399121985325,1047.4871037119683,335.6302555494992,332.9760130548456,487.8822145301229,108.43910664705813,197.1009445897745,487.8822145301229,108.43910664705813,197.1009445897745,460.927560521953,82.09731664862163,621.335148457247,458.7293086823768,80.47374157917135,622.9907724964391,539.1711652594076,209.5876171405952,150.99304663007874,559.6048891818457,227.1911489024411,135.8750684650711,1.7660696245994154,1.68936792133527,836.7367674356994,55.02128687569982,505.8485178022143,827.6421321882219,49.15723085948567,524.7816386727906,1190.1774161901424,428.1172915417024,213.6225326511069,1190.1774161901424,428.1172915417024,213.6225326511069,652.0142372701345,206.7497853923971,479.7244455427999,652.0142372701345,206.7497853923971,479.7244455427999,410.8176543237551,21.501714336360475,429.4398683230485,410.8176543237551,21.501714336360475,429.4398683230485,487.8822145301229,108.43910664705813,197.1009445897745,487.8822145301229,108.43910664705813,197.1009445897745,0.4677002888125932,0.8120295647763053,0.3443292759637121,0.427155978346756,-0.0405443104658371,684.9739129860842,767.9428661704626,0.963009623772096,53.71437698241993,-0.9195112781956748,110,5,1080863.6024844348,-0.9195112781956748,-0.4625435275560226,684.9739130434135,0.0005799821030939,43.83680693473934,43.05568275960754,505.6562260212882,986.0020162158291,655.7528909982303,0.9412407328901532,67.69932736569207,48.15076244354722,46.979076180849525,1.0,0.963009623772096,53.71437698241993,51.83680693473934,49.49343440934395
Cbkx2NHyF3NrebzXGqNgSfiWent1,896.3699837658581,241.2667433288288,243.75620623038688,896.3699837658581,241.2667433288288,243.75620623038688,615.522539928782,70.75822541165658,10.0,615.522539928782,70.75822541165658,10.0,538.1974740673289,51.28472731338047,385.25229908833984,538.1974740673289,51.28472731338047,385.25229908833984,280.8474438370762,170.50851791717224,233.75620623038688,280.8474438370762,170.50851791717224,233.75620623038688,24.37562062303869,24.37562062303869,948.02604750775,222.6417381166549,152.93122865746437,948.02604750775,222.6417381166549,152.93122865746437,890.6084261605573,281.0822248961899,288.7040738394427,890.6084261605573,281.0822248961899,288.7040738394427,755.7917279037993,186.57227610830176,201.4866075633445,755.7917279037993,186.57227610830176,201.4866075633445,514.906978996301,10.0,239.244000410922,514.906978996301,10.0,239.244000410922,615.522539928782,70.75822541165658,10.0,615.522539928782,70.75822541165658,10.0,0.6187297415394483,,,0.6119645848346287,-0.0067651567048195,634.9611494126366,591.7929238136699,0.8538843832857959,79.36533079750149,-0.6461206140421448,120,5,944877.1874992796,-0.6461206140421448,-0.3466101190455202,625.5125000004967,0.0003845469132186,47.74061633068205,46.95949215555025,462.7040987696258,753.9495005612873,737.2137897240781,0.9221691281560624,57.923988773912285,46.591316126591465,45.41962986389377,0.2399986504487158,0.9297328524937096,55.0374970111761,52.08014716776644,49.736774642371046
Co587hoelyeANqFX7AYvuVQW0lZ2,604.7893851171365,84.86619080395484,295.9916072598557,604.7893851171365,84.86619080395484,295.9916072598557,327.9917861797078,10.0,101.80206520483836,327.9917861797078,10.0,101.80206520483836,329.7770964078508,44.15185207362026,356.9764843203378,328.68939177662327,43.455897397682406,358.6451905278919,276.7975989374287,74.86619080395484,194.1895420550174,276.7975989374287,74.86619080395484,194.1895420550174,2.9075206545592565,2.9075206545592565,615.2129808386658,81.78008857184719,339.71217608854045,615.2129808386658,81.78008857184719,339.71217608854045,602.859206129029,88.89649943279542,243.7797574390276,602.859206129029,88.89649943279542,243.7797574390276,422.85612390690335,10.0,311.9923551046473,422.2098455107309,10.0,317.8029812827494,317.14957305184544,50.65345689676738,150.37696435384908,317.14957305184544,50.65345689676738,150.37696435384908,327.9917861797078,10.0,101.80206520483836,327.9917861797078,10.0,101.80206520483836,0.3064829320796592,0.992624874568133,0.6861419424884738,0.3013040646625484,-0.0051788674171107,441.0236154290513,570.0732671989865,0.9923337288205362,18.10902030843151,-0.8696864035124326,120,5,658243.5416695972,-0.8696864035124326,-0.2995079365017867,429.7958333392938,0.0006620891531021,32.964101737137376,32.182977562005576,376.0171417535437,675.844773770061,394.64956022015247,0.9728702594759068,34.066356508748605,41.28310284620184,40.11141658350414,0.733486726427736,0.9952942334939024,14.187897888068536,38.52389339822362,36.18052087282823
CtJe4bZZnYUBNrcPk00d3YQFSGp2,1159.896589252969,210.111734476211,365.18659641712594,1137.4218065883742,194.8836150395389,384.0180236781502,502.5620373413079,82.49335943228633,259.2706317534096,487.1912992084167,77.90421188457955,285.3465625492749,860.272672182649,296.063475190803,388.86533145438,852.5353090874341,282.7182743488029,401.4591782146017,657.3345519116613,127.61837504392469,105.91596466371637,650.2305073799575,116.97940315495936,98.67146112887532,1.4085150869090806,1.3457951630724,1440.1793203395275,280.9983628927126,183.47493727574997,1429.460610699767,284.19860788649686,191.10907388772387,1003.9299524563354,124.46895306477086,422.5680520375367,1003.9299524563354,124.46895306477086,422.5680520375367,811.0734497331351,10.0,509.89163524992,810.8081955693107,10.0,504.3895297094282,761.3690378808641,108.35252939731213,351.3849665018666,761.3690378808641,108.35252939731213,351.3849665018666,502.5620373413079,82.49335943228633,259.2706317534096,487.1912992084167,77.90421188457955,285.3465625492749,0.5444586122655688,0.514656735350658,-0.0298018769149107,0.5316205708353376,-0.0128380414302311,761.8291666676579,892.2326373139467,0.9747303049652138,46.77704769055156,-1.1706842105263706,120,5,1285996.4583333344,-1.1706842105263706,-0.6160674603174202,761.8291666666822,0.0003122073225716,42.453926486589566,41.672802311457765,353.5276648610638,1293.240866526998,1057.0706732148783,0.989523737496003,30.11868412186746,40.051457141243446,38.87977087854575,0.0,0.989523737496003,30.11868412186746,46.051457141243446,43.70808461584805
DAKDKPH698P12JfTbbjemLI6PIH2,1010.5787318569616,138.77821798115465,49.00472652816962,1010.5787318569616,138.77821798115465,49.00472652816962,324.7493693468349,13.796270485809751,103.3269700784749,324.7493693468349,13.796270485809751,103.3269700784749,754.5998934099821,292.71976415565274,23.00541332356838,754.5998934099821,292.71976415565274,23.00541332356838,685.8293625101267,124.98194749534488,-54.32224355030528,685.8293625101267,124.98194749534488,-54.32224355030528,0.4742684943819745,0.4742684943819745,1014.2616830843187,94.9347217578885,94.73570373335536,1014.2616830843187,94.9347217578885,94.73570373335536,998.785580817932,143.53238804831162,11.489368389597049,998.785580817932,143.53238804831162,11.489368389597049,654.962258046763,60.122347567893954,126.2593143722616,654.962258046763,60.122347567893954,126.2593143722616,406.8628413750154,38.92494350344243,152.56363694460128,406.8628413750154,38.92494350344243,152.56363694460128,324.7493693468349,13.796270485809751,103.3269700784749,324.7493693468349,13.796270485809751,103.3269700784749,0.4444751894561198,,,0.4338983713982401,-0.0105768180578796,428.0749999973744,707.4786886262161,0.9859821654029428,30.586387746784133,-1.3280921052252517,120,5,737661.4583331471,-1.3280921052252517,-0.3676041666708061,428.0750000004967,0.0007209448593132,38.20555065109165,37.42442647595985,369.9235538803624,857.3279183236265,421.183348170526,0.9924479321252104,22.45022337433418,37.11300563997747,35.941319377279775,0.3225724023729054,0.9943438664142392,19.42887048423599,41.667601291332446,39.32422876593705
DPvStUYSmohmXwFwaKRqHv89R3k1,936.8123611122094,191.0788533618693,320.22439794677564,950.051592001766,195.93038172276007,315.1544691924586,378.0254734108645,81.75717382585677,150.65554658804606,378.0254734108645,81.75717382585677,150.65554658804606,627.2268630118919,277.7651464675121,358.8569578630938,610.9413146248528,267.9036806675519,376.1354227199357,558.7868877013449,109.32167953601254,169.56885135872955,572.0261185909014,114.1732078969033,164.4989226044125,2.125540049463962,2.091887596108359,907.9272043624496,10.0,400.6149183901326,907.9272043624496,10.0,400.6149183901326,867.1779773890413,205.7158475108788,338.3811541992285,886.8942210127417,216.7772678877612,333.21423522242515,640.9897643920272,98.35253681839446,433.9728884058135,640.9897643920272,98.35253681839446,433.9728884058135,459.0029384050727,10.0,353.65904268851654,458.8154202499487,10.0,329.0560686898578,378.0254734108645,81.75717382585677,150.65554658804606,378.0254734108645,81.75717382585677,150.65554658804606,0.7201616257578893,0.9280736923226928,0.2079120665648034,0.672923216669568,-0.0472384090883213,528.6791679150589,847.8265383470233,0.9948097168887984,20.35992362728461,-0.9292478070159744,120,5,982292.7083158244,-0.9292478070159744,-0.58789087302155,528.6791666547457,0.0003528779965803,34.135684405595995,33.354560230464195,200.00000000000853,1177.9955853150318,942.316801689458,0.9987078963068656,10.158493443388338,29.183101480242364,28.011415217544663,0.2516643328272493,0.9992049874987948,7.968335283900459,32.754755981997775,30.411383456602376
DaRehVxIOhXtEtUExdgvUl0mKcx2,1489.393180894492,328.094660689359,271.5659719144562,1489.393180894492,328.094660689359,271.5659719144562,624.2102824394232,155.23013093942365,463.7733186534984,624.2102824394232,155.23013093942365,463.7733186534984,1206.0048125868764,402.510161947862,316.79141363964686,1203.3636418932124,403.8922064891238,318.99610679742864,865.1828984550688,172.86452974993534,-192.20734673904215,865.1828984550688,172.86452974993534,-192.20734673904215,0.5855575579529034,0.5855575579529034,1786.8578030430222,387.1849817911304,22.1615276158197,1786.8578030430222,387.1849817911304,22.1615276158197,1301.8156582492852,226.0344947459131,411.271660141995,1301.8156582492852,226.0344947459131,411.271660141995,1195.3308543740254,172.12456608407186,430.850632684967,1195.3308543740254,172.12456608407186,430.850632684967,1322.8680286943002,318.64534196224355,65.49034911214103,1285.0069533290132,316.6988260758257,94.40966075125912,624.2102824394232,155.23013093942365,463.7733186534984,624.2102824394232,155.23013093942365,463.7733186534984,0.1315968574744672,0.0065460930549799,-0.1250507644194873,0.1180786945703164,-0.0135181629041508,1088.0130434592545,831.5281772841226,0.9652887333945002,48.28216547182433,-0.7186403508524758,113,5,1621641.4982717596,-0.7186403508524758,-0.5840544576305612,1088.013043473596,0.0001981014788914,42.77062247581081,41.98949830067901,378.9495855639613,1474.3945092077197,1632.635386586912,0.998011673617612,11.5556757470809,30.471767229407547,29.30008096670985,0.0573765227368695,0.9981333640199116,11.1964752873647,36.155990222852765,33.81261769745736
Df83JuPuJkXqTGbENhM2gw5SJM43,,,,,,,,,,,,,1554.7349817779746,517.1624506899093,49.68829499842106,1455.542756966647,511.9745949450415,116.20423641418864,,,,,,,,,,,,,,,,,,,,,,,,,,,,,,,,,,,,,,,,,,,,1142.0545455325312,889.386533575267,0.7032394471868522,150.8384548930842,-0.2919228070175176,39,5,1810092.5303030352,-0.2919228070175176,-0.7904117845117722,1142.0545454545538,-0.0004079285670382,54.162094289876805,53.38097011474501,200.0000000000856,1754.6677582505563,2239.7414657501954,0.8296433996111923,114.28479977526528,53.38693576614169,52.21524950344399,0.0,0.8296433996111923,114.28479977526528,59.38693576614169,57.043563240746295
DxSidjznjVSNDJuDqqGgxpMEGtw1,1185.01634821659,174.14297983746812,462.17812313961497,1155.4056548988851,152.3113976181044,484.53186916192857,1036.615723333558,469.11382135359634,169.9327260993456,1077.367088533635,456.8108698354686,161.4000971475675,1255.1626741735686,446.72157894052106,263.6513892869364,1226.5012623770715,422.15597098906346,296.92875683574755,148.40062488303215,-294.9708415161282,292.2453970402694,78.03856636525006,-304.4994722173642,323.1317720143611,2.7197711338392683,3.00205438364094,1653.7712094471815,353.54243874727814,10.0,1653.7712094471815,353.54243874727814,10.0,1128.0605274128775,185.2500032403009,502.59895684451953,1080.8229980739768,154.89036603023632,532.9711980904095,1444.8550999893623,358.4206620227596,379.6450488989257,1444.8550999893623,358.4206620227596,379.6450488989257,940.6093272174628,288.7484653450086,370.56736577571496,940.6093272174628,288.7484653450086,370.56736577571496,1036.615723333558,469.11382135359634,169.9327260993456,1077.367088533635,456.8108698354686,161.4000971475675,0.1654434668479066,0.2785177936508036,0.113074326802897,0.1529641319229015,-0.012479334925005,1262.5584274938285,565.9855284133473,0.5937548685592626,147.33697619735875,0.6942614491696376,111,5,1649500.9740170334,0.6942614491696376,-0.6134127628440169,1206.512499988079,4.972434779090214e-05,53.92722318425362,53.14609900912182,200.0000000002292,1561.514363368492,2641.2873360421004,0.7088891497204823,124.72309068455158,54.26096005428298,53.089273791585285,0.1542327632197796,0.7128495957351997,123.87178160119971,60.19247011293061,57.84909758753521
DzB19GqCB7fyrlEPexogWkjFzEx2,1013.143399449217,248.27567508006015,486.7431542911809,1013.143399449217,248.27567508006015,486.7431542911809,368.0883301056377,69.2512065256545,270.5202033919587,359.4515578246948,64.72137029138024,281.7128893827743,675.9338518642166,344.56282193162986,552.5910910009516,714.881979487741,366.3351316992483,529.1766560521816,645.0550693435794,179.0244685544057,216.22295089922216,653.6918416245222,183.55430478867996,205.0302649084066,1.7992857767666806,1.7277986653632451,1157.3748162682984,256.36969613014736,433.4310403414645,1157.3748162682984,256.36969613014736,433.4310403414645,876.7424766426678,193.70212960169243,523.9227571441813,876.7424766426678,193.70212960169243,523.9227571441813,1337.8635088090314,505.2385127947725,176.74612598766328,1337.8635088090314,505.2385127947725,176.74612598766328,404.3459220689361,10.0,595.5446506935797,403.26005068567616,10.0,625.9596964038609,368.0883301056377,69.2512065256545,270.5202033919587,359.4515578246948,64.72137029138024,281.7128893827743,0.2214250114613821,0.3377188575841663,0.1162938461227841,0.1974877917650441,-0.023937219696338,638.6130435893295,1015.2961990824818,0.9384602300615486,88.96212833180579,-0.220844263610214,116,5,1236920.662052474,-0.220844263610214,-0.9202749740816216,638.6130434948465,0.0001443157068754,48.88210754809224,48.10098337296044,200.00000000000608,1489.3624685318114,1056.5384270318505,0.9219329956312708,100.19844636791927,52.071526832203695,50.899840569506,1.0,0.9384602300615486,88.96212833180579,56.88210754809224,54.53873502269684
EEodWwGh0wWq5f8JmzfKvq0lyeu1,736.0997801066864,217.879346183922,484.0474296726538,739.2878087917956,227.6808414564376,464.24328010276855,378.573431738107,68.31210131413242,307.8953430877688,376.8695770421831,71.70546638793276,316.224112974874,527.7903308099868,168.05392378054805,494.0336905602372,532.2593211650803,168.24234175756197,479.10506008544746,357.52634836857936,149.5672448697896,176.152086584885,362.41823174961246,155.97537506850483,148.01916712789455,1.5721167615538472,1.468083112750025,722.5877685474951,10.0,587.7832871382511,721.8752111649591,10.0,566.2859861627333,678.0687746503953,235.12825532093584,451.72309368680095,678.0687746503953,235.12825532093584,451.72309368680095,672.2633176032218,156.16675167791416,380.9737729939783,673.2569056073439,109.84665407849764,404.8865140486876,446.0755035841757,102.44840433264464,499.5804653286716,460.2821726180898,110.70689509995802,435.1242694827391,378.573431738107,68.31210131413242,307.8953430877688,376.8695770421831,71.70546638793276,316.224112974874,0.5012273695157567,0.8190853639002925,0.3178579943845357,0.4751224437873158,-0.0261049257284409,767.3337445951967,568.0649982828306,0.802203005122236,92.03771721086686,-0.9873531655224496,118,5,1075210.4619565287,-0.9873531655224496,-0.4110714285714431,686.4583333333309,0.0002382124160202,49.22198462717767,48.44086045204587,488.87145625703647,823.5854680427042,876.1033381918103,0.9673821891766696,37.37518910165964,42.21007091274228,41.03838465004458,0.0,0.9673821891766696,37.37518910165964,48.21007091274228,45.86669838734689
EUhcW9kURScie1DwGPHqmNqotJB2,898.4033663538064,137.64222808069826,459.70036816054414,898.4033663538064,137.64222808069826,459.70036816054414,456.9197173029927,166.41629952858014,122.5068243978215,456.9197173029927,166.41629952858014,122.5068243978215,584.4780847153386,270.09245153430294,467.5709945722225,597.7159530661696,283.4614678101678,459.7991444876481,441.4836490508137,-28.77407144788188,337.19354376272264,441.4836490508137,-28.77407144788188,337.19354376272264,3.752447020157343,3.752447020157343,871.0015968177299,82.74691085448785,554.6714233653661,871.0015968177299,82.74691085448785,554.6714233653661,930.1272272061742,173.23230373592477,363.1704481074765,930.1272272061742,173.23230373592477,363.1704481074765,585.8876291409638,48.85689015668172,557.9968377497202,577.4241918298094,47.47060825339273,602.7689411122201,602.4579165274092,327.75819706300086,180.74035428629924,602.4579165274092,327.75819706300086,180.74035428629924,456.9197173029927,166.41629952858014,122.5068243978215,456.9197173029927,166.41629952858014,122.5068243978215,0.7425050077291481,0.7747482068710033,0.0322431991418552,0.7516442059194132,0.009139198190265,579.4318183675908,852.010619011467,0.9908633885963124,30.27698063439451,-1.1168635582512425,116,5,1016570.8588380351,-1.1168635582512425,-0.5860758203241502,579.4318181709809,0.0006587889808417,38.10387708749126,37.32275291235946,405.3849487631427,1126.3626139415344,615.5988523885741,0.9901382532136732,31.455522945138625,40.4857457806703,39.3140595179726,0.5343189372294561,0.9931544272979788,26.207456863936788,44.66043983399776,42.31706730860236
EmfmKFDgWJdW47a6CNTNjnbYaPh2,1473.7819554942932,405.428680501684,148.7040422595324,1473.7819554942932,405.428680501684,148.7040422595324,525.198193862555,105.7513959289208,249.09540162577733,525.198193862555,105.7513959289208,249.09540162577733,977.0826448712796,396.79029689026913,341.52824751199654,958.892596478203,386.8368455788759,355.4819150240826,948.5837616317384,299.67728457276326,-100.39135936624491,948.5837616317384,299.67728457276326,-100.39135936624491,0.596976264069838,0.596976264069838,1568.8103448559257,427.3103946068815,104.52203416772082,1568.8103448559257,427.3103946068815,104.52203416772082,1408.565208800404,383.757808003034,160.9261381725671,1408.565208800404,383.757808003034,160.9261381725671,983.4537638801656,147.8401668306077,446.7055293616149,935.6621741021474,102.32890123468152,477.251506603832,704.5923974137503,148.52759413205874,456.09527743985154,704.5923974137503,148.52759413205874,456.09527743985154,525.198193862555,105.7513959289208,249.09540162577733,525.198193862555,105.7513959289208,249.09540162577733,0.6625794656669423,0.8430136770556852,0.1804342113887429,0.6269722729066957,-0.0356071927602466,774.2875001766009,959.7933114329652,0.997978365618621,14.53292517466658,-0.9691293860557068,118,5,1356272.835134985,-0.9691293860557068,-0.7166725758802511,774.2875000089407,0.000241289884199,30.764167769805745,29.983043594673944,200.0000000000001,1546.6318405038562,1239.307341536311,0.9987838224813472,11.271980158089098,30.22320014311748,29.051513880419776,0.3122701760470717,0.9989930120545332,10.256846732211429,35.27945456463453,32.936082039239125
EoToosG69XMp4LTYdB6sB9WTrv22,694.6443441341202,37.309975416144425,426.537041515589,694.6443441341202,37.309975416144425,426.537041515589,480.02199408051325,57.24393484893215,112.43172397597276,480.02199408051325,57.24393484893215,112.43172397597276,584.7446818393939,118.08724116806935,337.3315515056745,584.7446818393939,118.08724116806935,337.3315515056745,214.6223500536069,-19.933959432787724,314.10531753961624,214.6223500536069,-19.933959432787724,314.10531753961624,3.793742783902719,3.793742783902719,960.1426808356474,237.7842980701231,291.445030005696,960.1426808356474,237.7842980701231,291.445030005696,705.8066861210673,53.858007374629246,284.8898371751321,705.8066861210673,53.858007374629246,284.8898371751321,900.9867852942908,196.8035850544557,27.114272199943603,900.9867852942908,196.8035850544557,27.114272199943603,618.910579137395,57.00002290491378,228.5733156524854,618.910579137395,57.00002290491378,228.5733156524854,480.02199408051325,57.24393484893215,112.43172397597276,480.02199408051325,57.24393484893215,112.43172397597276,0.3211001469568091,,,0.3139815343308159,-0.0071186126259931,645.674937111502,567.0570243481072,0.7500093284258431,106.66234474068668,-1.2247741229074047,120,5,954348.958320419,-1.2247741229074047,-0.3803898809353513,592.4541666507721,0.0003232960590865,50.69668188248721,49.91555770735541,539.6008016194003,710.1043769199318,545.6556395589967,0.9203198842779852,60.21770543701651,46.97966419322277,45.80797793052508,0.0,0.9203198842779852,60.21770543701651,52.97966419322277,50.63629166782738
Fz7EUjZCLuUBxLDUVtN6djaBTy42,759.0163556204974,109.82678866714554,380.4427945916804,759.0163556204974,109.82678866714554,380.4427945916804,609.1102431834806,88.65246406966821,10.0,609.1102431834806,88.65246406966821,10.0,535.9270940685676,72.3701788103783,353.4157507882133,535.9270940685676,72.3701788103783,353.4157507882133,149.90611243701676,21.174324597477323,370.4427945916804,149.90611243701676,21.174324597477323,370.4427945916804,38.04427945916804,38.04427945916804,738.7193602377818,124.71370992440016,451.9138050872083,738.7193602377818,124.71370992440016,451.9138050872083,742.9427785943122,50.39285124884736,345.32389818973894,742.9427785943122,50.39285124884736,345.32389818973894,651.0888480303227,73.36466583475669,189.48494049144747,651.0888480303227,73.36466583475669,189.48494049144747,475.5683146632948,25.067815176644,232.54842926868463,475.5683146632948,25.067815176644,232.54842926868463,609.1102431834806,88.65246406966821,10.0,609.1102431834806,88.65246406966821,10.0,0.324184082149942,0.5419366390693219,0.2177525569193799,0.3011691570689618,-0.0230149250809801,632.3713322297991,544.1839573529312,0.9366271195845756,54.99135520900626,-1.4200219298925307,120,5,889080.5208273232,-1.4200219298925307,-0.2321250000052034,619.1083333243927,0.000728946929425,44.07175994860644,43.29063577347464,600.7678225748641,714.864148627454,311.55049195914546,0.9850278015599596,26.729170811112155,38.857555087610336,37.68586882491264,0.0454562651764613,0.9851378118498442,26.630791632565234,44.820681264799525,42.47730873940412
G1Ff3XYUZMRsPafyEQ80ussnVlf1,981.3104657908128,215.03287338264383,201.4587316297863,975.2762768355184,219.33007708677047,208.7892382783693,442.427354010928,156.92894405998084,106.0870697130743,389.8144299828985,137.83089708536326,151.66502342485305,781.7338398558942,349.65549626825083,205.67853009414583,772.1656238911967,347.8559847572809,215.35885319064096,538.8831117798848,58.10392932266302,95.371661916712,585.4618468526198,81.49918000140721,57.12421485351629,1.8989942146074592,1.37664725566617,1093.4814289832682,248.6062205706497,67.17243729619395,1087.203614625781,250.9837210598577,71.45518839051007,962.637001216934,217.3264142570415,242.2867656723821,956.8633485520812,222.02566856148,249.3044371311324,1108.562651727898,326.4628878047434,44.74968340630248,1103.2356677720886,319.2341655938222,40.31314843818927,419.3185520147264,53.42823719184242,450.360858103304,419.72033559231096,57.5914343935092,465.0629845467119,442.427354010928,156.92894405998084,106.0870697130743,389.8144299828985,137.83089708536326,151.66502342485305,0.7076954801735515,0.7637823312147352,0.0560868510411836,0.6620421083116579,-0.0456533718618936,548.5166665732347,789.4399082674804,0.848498892385728,97.12440328319296,-0.0541359649441722,120,5,1024068.229169647,-0.0541359649441722,-0.6524712301258534,548.5166666805744,-9.798264138216766e-05,49.7599266486655,48.9788024735337,200.0000000006384,1098.6583032181863,1199.0013145376884,0.927458302135789,67.20697028669812,48.07776966654525,46.90608340384755,0.0,0.927458302135789,67.20697028669812,54.07776966654525,51.734397141149856
