participant_id,prp_t1_cost,prp_rt1_rt2_coupling,prp_order_violation_rate,prp_t1_only_rate,prp_t2_only_rate,prp_t2_while_t1_pending_rate,prp_iri_mean,prp_iri_median,prp_iri_p10,prp_iri_p25,prp_iri_grouping_rate_100,prp_t2_acc_short,prp_t2_acc_long,prp_t2_acc_cost,prp_t2_trials,prp_t2_rt_mean_soa_50,prp_t2_rt_median_soa_50,prp_t1_rt_mean_soa_50,prp_t1_rt_median_soa_50,prp_t1_acc_soa_50,prp_t2_acc_soa_50,prp_both_correct_soa_50,prp_timeout_rate_soa_50,prp_order_error_soa_50,prp_rt1_rt2_coupling_soa_50,prp_t2_rt_mean_soa_150,prp_t2_rt_median_soa_150,prp_t1_rt_mean_soa_150,prp_t1_rt_median_soa_150,prp_t1_acc_soa_150,prp_t2_acc_soa_150,prp_both_correct_soa_150,prp_timeout_rate_soa_150,prp_order_error_soa_150,prp_rt1_rt2_coupling_soa_150,prp_t2_rt_mean_soa_300,prp_t2_rt_median_soa_300,prp_t1_rt_mean_soa_300,prp_t1_rt_median_soa_300,prp_t1_acc_soa_300,prp_t2_acc_soa_300,prp_both_correct_soa_300,prp_timeout_rate_soa_300,prp_order_error_soa_300,prp_rt1_rt2_coupling_soa_300,prp_t2_rt_mean_soa_600,prp_t2_rt_median_soa_600,prp_t1_rt_mean_soa_600,prp_t1_rt_median_soa_600,prp_t1_acc_soa_600,prp_t2_acc_soa_600,prp_both_correct_soa_600,prp_timeout_rate_soa_600,prp_order_error_soa_600,prp_rt1_rt2_coupling_soa_600,prp_t2_rt_mean_soa_1200,prp_t2_rt_median_soa_1200,prp_t1_rt_mean_soa_1200,prp_t1_rt_median_soa_1200,prp_t1_acc_soa_1200,prp_t2_acc_soa_1200,prp_both_correct_soa_1200,prp_timeout_rate_soa_1200,prp_order_error_soa_1200,prp_rt1_rt2_coupling_soa_1200
06qcrpGKL6Vc3LVplFQC90VAcRm1,-36.570035463014165,0.3722033568220028,0.008333333333333333,0.0,0.0,0.008333333333333333,429.91848739493,303.0,137.7800000011921,204.5,0.05042016806722689,1.0,1.0,0.0,118,858.182608694486,850.1000000089407,683.1956521719694,701.9000000059605,1.0,1.0,1.0,0.0,0.041666666666666664,0.7502832255600699,762.0750000011176,748.5,657.4291666653007,624.6000000014901,1.0,1.0,1.0,0.0,0.0,0.7699906448664644,630.4565217384826,638.5999999940395,693.2608695645695,614.0,1.0,0.9583333333333334,0.9583333333333334,0.0,0.0,0.7719562720365002,487.8999999997516,459.34999999403954,679.9625000022352,630.3000000044703,1.0,1.0,1.0,0.0,0.0,0.5721960089342584,475.7541666664183,463.5,706.6083333337059,674.9999999925494,1.0,1.0,1.0,0.0,0.0,0.11523595814801707
0ZtXlQtAJkW6jS21vfMOtNL4OnL2,101.35605920442265,0.7447500276577393,0.0,0.0,0.0,0.0,467.4616666666688,356.45000000004075,153.26999999998952,216.10000000006403,0.06666666666666667,0.9791666666666666,0.9583333333333334,-0.02083333333333326,115,927.2347826087068,726.3999999999069,716.4565217391254,555.1000000000931,1.0,0.9583333333333334,0.9583333333333334,0.0,0.0,0.8857382764747871,823.9000000000038,691.5500000000466,653.1333333333314,577.5499999999884,1.0,1.0,1.0,0.0,0.0,0.7289945542438371,685.33333333335,576.0,797.7999999999967,624.9000000000233,1.0,0.875,0.875,0.0,0.0,0.9627538039623079,471.1666666666715,432.9000000000233,570.7458333333634,574.2500000000582,1.0,1.0,1.0,0.0,0.0,0.4066883941323295,405.2521739130455,382.5999999999767,582.7652173913185,565.0999999999767,1.0,0.9583333333333334,0.9583333333333334,0.0,0.0,0.281451673590989
0d841i8KPjdjwCYfDuUUXj0SEjH2,-6.8991105547064535,0.7200624446282813,0.0,0.0,0.0,0.0,547.4783333460665,424.3000001908513,230.34000005724374,310.25,0.0,0.9583333333333334,0.9583333333333334,0.0,113,1213.4590908397329,1203.5499997138977,843.9227273680947,767.8499999046326,0.9166666666666666,0.9583333333333334,0.9166666666666666,0.0,0.0,0.6588740672905512,876.1863638270985,733.2000002861023,710.818181774833,582.4000000953674,0.9583333333333334,0.9583333333333334,0.9166666666666666,0.0,0.0,0.9257683303476314,1103.2916667461395,994.5500001907347,987.1000001033148,774.8500003814697,1.0,1.0,1.0,0.0,0.0,0.9217776441359459,830.1636363809758,564.3000001907349,962.1590910391374,801.4000000953674,1.0,0.9166666666666666,0.9166666666666666,0.0,0.0,0.9092559845230742,529.2304347494374,512.8000001907349,784.2695651261703,697.0,1.0,0.9583333333333334,0.9583333333333334,0.0,0.0,0.39503722912251493
0oa5NYVnIBS9NmrmRAZrahXDctP2,-149.72761628157355,0.6426007691563175,0.0,0.0,0.0,0.0,385.628333333383,248.79999999701977,110.04999999403954,144.85000000149012,0.06666666666666667,0.8958333333333334,1.0,0.10416666666666663,112,918.64545454559,737.5000000074506,767.6863636360927,579.6000000014901,1.0,0.9166666666666666,0.9166666666666666,0.0,0.0,0.9264312347448779,778.11428571386,638.2000000029802,688.5428571403027,525.1999999880791,1.0,0.875,0.875,0.0,0.0,0.8425661636573458,681.20909090882,545.4500000104308,783.4863636371764,604.6499999985099,0.9583333333333334,0.9583333333333334,0.9166666666666666,0.0,0.0,0.9419594516384083,508.71304347852004,453.2000000029802,730.1130434799453,622.5,1.0,0.9583333333333334,0.9583333333333334,0.0,0.0,0.8473365721948378,510.1249999993791,495.44999999552965,878.7625000011176,770.6499999985099,1.0,1.0,1.0,0.0,0.0,0.3612787523864113
146QT9LupyU2BAiTsB3PMIpVXM22,62.412929292851004,0.7684743509926293,0.016666666666666666,0.008333333333333333,0.0,0.016666666666666666,472.14273504276053,344.70000000298023,137.97999999225144,214.6000000089407,0.08547008547008547,0.9574468085106383,0.9583333333333334,0.0008865248226950229,110,1031.286956520832,985.7000000029802,761.8086956525626,716.6000000089407,0.9583333333333334,0.9583333333333334,0.9583333333333334,0.0,0.0,0.8437366382392089,937.1363636377183,833.4000000059605,843.2636363641782,642.1499999985099,1.0,0.9565217391304348,0.9565217391304348,0.0,0.041666666666666664,0.9601044607808129,677.2636363641782,565.4500000029802,766.772727274082,619.8999999985099,1.0,0.9565217391304348,0.9565217391304348,0.041666666666666664,0.0,0.9343996533956488,723.1761904756228,509.1999999880791,871.4285714257331,676.8999999910593,1.0,0.9130434782608695,0.9130434782608695,0.0,0.041666666666666664,0.9141673685792592,483.8272727274082,498.8000000119209,739.2181818187237,636.25,0.9583333333333334,0.9583333333333334,0.9166666666666666,0.0,0.0,0.1970018798868714
1Vb7DcXYw9R86bw5qj9eBk9fPqA2,-285.5139130417276,0.44849818848788453,0.0,0.0,0.0,0.0,279.1750000012379,179.45000000303844,104.08999999463558,129.475000001461,0.08333333333333333,0.9375,1.0,0.0625,114,1072.6000000031097,1036.300000011921,972.3130434764469,924.399999976158,1.0,0.9583333333333334,0.9583333333333334,0.0,0.0,0.9425260325035689,930.3409090881997,870.6000000089407,904.7045454504815,907.0,1.0,0.9166666666666666,0.9166666666666666,0.0,0.0,0.8365588045887871,920.1086956508782,853.5,1015.9521739120069,912.7999999821186,1.0,0.9583333333333334,0.9583333333333334,0.0,0.0,0.9008143120256833,684.9217391273249,642.5,1045.0173913020155,1034.2000000178814,1.0,0.9583333333333334,0.9583333333333334,0.0,0.0,0.6335567412718581,561.5739130442557,536.5,1224.7739130388136,1075.899999976158,0.9583333333333334,1.0,0.9583333333333334,0.0,0.0,0.8635152293559794
1dpmVw8fpcc2IHs0s9WqdU8Yvi53,-94.05208332588268,0.6508898157754288,0.0,0.0,0.0,0.0,276.68833333551885,215.5999999642372,114.4599999666214,167.05000001192093,0.05,1.0,1.0,0.0,120,1627.2166666686535,1599.550000011921,1485.2500000248353,1374.9500000476835,1.0,1.0,1.0,0.0,0.0,0.969490097386053,1719.2875000039737,1689.8500000238419,1674.3041666646798,1649.75,1.0,1.0,1.0,0.0,0.0,0.9603294052316627,1580.054166674614,1629.25,1646.0083333452542,1716.0,1.0,1.0,1.0,0.0,0.0,0.8344443356420261,1229.499999995033,1111.9500000476837,1582.8625000019867,1536.949999988079,1.0,1.0,1.0,0.0,0.0,0.9209690746134526,888.2750000059605,776.6999999880791,1673.8291666706402,1541.6500000357628,1.0,1.0,1.0,0.0,0.0,0.8490567846000739
1fbLQPCcysVlSKup96K4yI5NX6G3,-19.660869576792834,0.6572907653677449,0.0,0.0,0.0,0.0,611.7124999950271,539.1000000239001,327.23000004281056,391.4749999343476,0.0,0.9583333333333334,1.0,0.04166666666666663,114,1135.6869565093,1051.6999999284744,783.6913043571556,666.0,1.0,0.9583333333333334,0.9583333333333334,0.0,0.0,0.9481521246016592,1089.2782608840776,975.399999976158,702.8869565051535,577.5,1.0,0.9583333333333334,0.9583333333333334,0.0,0.0,0.8151136428807658,726.7699999928475,631.6999999880791,608.8150000154972,559.2499999403954,0.875,0.9583333333333334,0.8333333333333334,0.0,0.0,0.8674821643117844,724.3000000069538,637.4499999880791,681.8583333392938,599.0500000119209,1.0,1.0,1.0,0.0,0.0,0.8443992977618224,529.7249999940395,460.0,762.9500000079473,694.4499999880791,1.0,1.0,1.0,0.0,0.0,0.7139654104831598
1tT7dcLvf0bMGBdBWWYd8YkdJwr1,-269.2684264907432,0.6343053701694559,0.058333333333333334,0.0,0.025,0.075,324.92568807643966,204.30000007199124,119.77999999527819,156.70000004768372,0.06422018348623854,1.0,1.0,0.0,109,1584.6181818301027,1474.8000000119207,1373.7227272770622,1296.8500000834465,1.0,1.0,1.0,0.041666666666666664,0.041666666666666664,0.818033236370277,1462.8899999976159,1410.8500000238419,1377.8500000059605,1346.6000000238419,1.0,1.0,1.0,0.041666666666666664,0.125,0.8666208974980548,1716.4782608695652,1613.7999999523165,1725.6434782484303,1615.7999999523165,1.0,1.0,1.0,0.0,0.041666666666666664,0.8880282649971624,1202.2523809387571,1007.100000023842,1481.0190476292655,1422.6999999284744,1.0,1.0,1.0,0.041666666666666664,0.08333333333333333,0.9007646905601134,864.7173913043479,713.9000000953674,1644.9565217339475,1515.9000000953674,1.0,1.0,1.0,0.041666666666666664,0.0,0.8042463027320412
1upUBO9zBnhHcpJ1WoAnaBXWKRV2,-145.80864661506246,0.6772215325417482,0.0,0.0,0.0,0.0,456.70583333571653,320.09999999403954,151.25999997854234,198.4249999821186,0.0,0.8333333333333334,0.9166666666666666,0.08333333333333326,102,915.1999999943532,864.6999999880791,749.2631578947369,703.6000000238419,0.9166666666666666,0.875,0.7916666666666666,0.0,0.0,0.9436539910409812,798.1473684248172,749.0,681.2052631472286,685.7999999523163,0.9583333333333334,0.7916666666666666,0.7916666666666666,0.0,0.0,0.6999542012759637,744.7043478229772,671.6999999880791,791.8782608716384,714.2999999523163,1.0,0.9583333333333334,0.9583333333333334,0.0,0.0,0.85956224253177,592.5199999988079,466.7000000178814,742.225,628.2999999821186,1.0,0.8333333333333334,0.8333333333333334,0.0,0.0,0.8616084021821427,545.8333333333334,475.0999999642372,861.0428571360452,731.6999999880791,0.9166666666666666,0.9166666666666666,0.875,0.0,0.0,0.8100621988832146
23hG7h2ByUZDbmOMTDtp0HT0xRb2,-232.9021645335406,0.5293329163872202,0.0,0.016666666666666666,0.008333333333333333,0.0,432.73451326589463,277.40000009536743,176.6799997329712,199.60000038170256,0.0,0.9555555555555556,1.0,0.0444444444444444,105,1537.590476172311,1383.4000000953674,1219.5285714921497,1186.5999999046326,1.0,0.9130434782608695,0.9130434782608695,0.041666666666666664,0.0,0.8711010686531074,1414.0190475554693,1219.7999997138977,1152.2761904625665,983.0999999046326,0.9545454545454546,1.0,0.9545454545454546,0.08333333333333333,0.0,0.8183787305722009,1143.1499999761581,959.7999999523163,1143.410000014305,1048.7000000476837,0.9545454545454546,0.9545454545454546,0.9090909090909091,0.08333333333333333,0.0,0.8447242960966787,1069.1333333651226,838.2000002861023,1342.6238095419747,1182.7000002861023,0.9545454545454546,1.0,0.9545454545454546,0.08333333333333333,0.0,0.8106835837916613,903.5727272900668,648.1499998569489,1418.8045455108988,1577.0,0.9583333333333334,1.0,0.9583333333333334,0.0,0.0,-0.05453890662749856
28nQWMwCaSNFBEXlicY3eHqpwKU2,181.20454543828964,0.7760390479066944,0.0,0.0,0.0,0.0,658.2508333226045,591.1999999284744,291.52000012397764,411.57500010728836,0.0,0.9583333333333334,0.9166666666666666,-0.04166666666666674,112,1417.0904761950176,1484.1000001430511,988.1714285895938,864.9000000953674,0.9583333333333334,0.9166666666666666,0.875,0.0,0.0,0.9014766918268368,1174.2173912732499,1161.4000000953674,875.6695652111717,807.3999998569489,0.9583333333333334,1.0,0.9583333333333334,0.0,0.0,0.7787237596006926,1125.0826087101645,1041.9000000953674,870.843478265016,769.4000000953674,1.0,0.9583333333333334,0.9583333333333334,0.0,0.0,0.7518088980844401,708.8695651759272,638.5999999046326,687.1260869606682,661.5,1.0,0.9583333333333334,0.9583333333333334,0.0,0.0,0.6498897787142828,625.7590909112583,588.8500000238419,748.1590909307653,715.6499999761581,1.0,0.9166666666666666,0.9166666666666666,0.0,0.0,0.46849361499639247
2FHuv7L9nWPdbIiWHRIuXtcoyw83,-185.64114832536347,0.5496367768143936,0.0,0.0,0.0,0.0,281.8214285714078,175.5,85.4,119.5,0.16071428571428573,0.9302325581395349,1.0,0.06976744186046513,101,1201.199999999965,1095.5,1051.1500000000117,966.5,1.0,0.9523809523809523,0.9523809523809523,0.125,0.0,0.9394790504152942,1144.1111111110981,1020.5,1135.5555555555557,1047.5,0.9090909090909091,0.9090909090909091,0.8181818181818182,0.08333333333333333,0.0,0.9820956683076772,940.1428571428904,837.0,1033.4761904762238,989.0,0.9166666666666666,0.9166666666666666,0.875,0.0,0.0,0.8088135435865899,594.2000000000116,527.5,982.85,942.9999999998836,0.9565217391304348,0.9130434782608695,0.8695652173913043,0.041666666666666664,0.0,0.9250088567823276,656.5454545454334,556.0000000001164,1276.772727272738,1101.5000000001164,1.0,1.0,1.0,0.08333333333333333,0.0,0.33961818729663346
2h5FgHUEvBS1twD5DqbTIRrMm1f2,127.85000000051821,0.834884057068692,0.0,0.008333333333333333,0.0,0.0,447.90588235254637,312.10000002384186,206.9399999976158,239.80000001192093,0.0,0.9787234042553191,0.9583333333333334,-0.020390070921985748,116,1152.3272727348588,1158.5000000298023,931.2727272727273,868.2000000178814,1.0,0.9565217391304348,0.9565217391304348,0.041666666666666664,0.0,0.9084943982077472,1022.7958333368102,990.0,888.8375000059605,835.25,1.0,1.0,1.0,0.0,0.0,0.9235533395803922,835.1043478224589,693.1999999880791,822.1652173892311,707.0999999642372,1.0,0.9583333333333334,0.9583333333333334,0.0,0.0,0.9770539451271852,867.5749999930462,749.5999999940395,1081.0166666805744,952.2500000298023,1.0,1.0,1.0,0.0,0.0,0.9446869819769088,518.3347826029943,433.3000000119209,781.2826086982437,702.8000000119209,1.0,0.9583333333333334,0.9583333333333334,0.0,0.0,0.7727937944817407
2zDXvJKvjeejeOSNbtDbtSI5cdz1,112.74846014461605,0.7365037738784446,0.0,0.0,0.0,0.0,361.17583333319055,274.0,147.70999999996275,200.9250000002794,0.008333333333333333,1.0,0.9583333333333334,-0.04166666666666663,119,1440.2791666664805,1471.3499999996275,1271.9916666665424,1307.5999999996277,1.0,1.0,1.0,0.0,0.0,0.9581167469292935,1356.7291666666667,1317.5999999996277,1262.479166666589,1265.6499999994412,1.0,1.0,1.0,0.0,0.0,0.9488561326014815,1183.7791666667133,1066.750000000931,1264.3083333335817,1225.4000000003725,1.0,1.0,1.0,0.0,0.0,0.9671963525246016,865.2958333330849,729.2999999988824,1135.954166666682,1066.1499999994412,1.0,1.0,1.0,0.0,0.0,0.916519886602048,689.7826086955712,664.2999999988824,1154.4869565219497,1119.5,1.0,0.9583333333333334,0.9583333333333334,0.0,0.0,0.589073385368972
3FSnTCSiUodLp5u3bE0xaUjLk0b2,67.263232323294,0.6842568988933079,0.03333333333333333,0.0,0.0,0.03333333333333333,361.4284482758617,256.85000000009313,34.30000000016298,91.07499999998254,0.3103448275862069,0.9782608695652174,0.9565217391304348,-0.021739130434782594,112,1210.2863636363975,1221.2000000001865,1081.9772727272198,1169.3000000000466,1.0,1.0,1.0,0.0,0.08333333333333333,0.9065801817965817,1087.36521739128,1053.5,1014.1652173913266,1000.1000000000932,1.0,0.9583333333333334,0.9583333333333334,0.0,0.0,0.7878101763371649,900.7772727272558,815.2999999999302,919.8999999999597,993.3999999999069,0.9565217391304348,1.0,0.9565217391304348,0.0,0.041666666666666664,0.9057546797734479,769.1565217391143,588.1000000000931,1106.208695652176,1002.2999999998136,0.9583333333333334,1.0,0.9583333333333334,0.0,0.0,0.9439619755875198,509.03181818178433,476.9000000000233,980.0545454544692,734.2000000000698,1.0,0.9565217391304348,0.9565217391304348,0.0,0.041666666666666664,0.6372897407463305
3WijiOiVCoMbn80F05SPYsxl0TC2,-147.43235814349453,0.13878966248401498,0.0,0.0,0.0,0.0,489.6141666640867,382.55000001197914,239.0499999045278,304.7249999641499,0.008333333333333333,0.9791666666666666,1.0,0.02083333333333337,119,1117.678260870602,1105.1999999284744,813.4826086915058,772.1000000238419,1.0,0.9583333333333334,0.9583333333333334,0.0,0.0,0.8528538399878156,1037.9000000059605,966.1499999761581,785.6041666815678,718.1000000238419,1.0,1.0,1.0,0.0,0.0,0.5570402868822558,870.1208333273729,807.9499999880791,804.6458333283663,790.3000000119209,1.0,1.0,1.0,0.0,0.0,0.5216709582466245,699.1041666766008,665.3000000119209,934.8958333383003,956.9000000357628,1.0,1.0,1.0,0.0,0.0,0.7154708942537908,564.0999999940395,530.9000000357628,946.6791666597128,937.4499999880791,1.0,1.0,1.0,0.0,0.0,-0.13810325490190437
3rlzYufVjVVLv3ZFLcpfZUtXEEi1,-297.3854544141076,0.165452324677712,0.016666666666666666,0.0,0.0,0.016666666666666666,279.08305086523995,249.15000009536743,23.57000026702881,40.32499980926514,0.4067796610169492,0.9148936170212766,1.0,0.08510638297872342,109,1013.3545454198664,1049.550000190735,833.8681818355213,835.2999997138977,0.9583333333333334,0.9583333333333334,0.9166666666666666,0.0,0.0,0.7756054069915354,887.1222222646078,900.5500001907349,869.0722223387825,809.4999995231628,0.8260869565217391,0.8695652173913043,0.782608695652174,0.0,0.041666666666666664,0.6240721235027255,776.741666674614,731.0,892.5624999602636,802.3499999046326,1.0,1.0,1.0,0.0,0.0,0.8055651081394122,585.5043478841367,481.0,986.7173913043479,1001.8000001907347,1.0,0.9583333333333334,0.9583333333333334,0.0,0.0,0.8098945934106141,524.318181774833,505.4500002861023,1147.0954544760964,930.1499996185303,0.9565217391304348,1.0,0.9565217391304348,0.0,0.041666666666666664,-0.2580859441087493
3xCaqfcHxRQxuOlEzXz3PNcHODH2,-44.759601450457694,0.7312311601866646,0.008333333333333333,0.0,0.0,0.008333333333333333,243.75126050425177,98.79999999696156,38.78000000418397,51.29999999701977,0.5042016806722689,1.0,1.0,0.0,118,941.7333333330849,805.3500000014901,910.0166666662941,836.3999999985099,1.0,1.0,1.0,0.0,0.0,0.9761236538111271,863.4090909090909,819.0,947.450000000271,931.9000000059605,0.9565217391304348,1.0,0.9565217391304348,0.0,0.041666666666666664,0.9682454701517644,676.6833333342025,575.5,870.8791666657975,773.4499999955297,1.0,1.0,1.0,0.0,0.0,0.8967837845611694,645.0374999996275,512.3499999940395,1100.137499999255,1022.8000000044703,1.0,1.0,1.0,0.0,0.0,0.9562276055013662,407.15833333383006,383.8999999985099,972.6791666677842,959.2000000029802,1.0,1.0,1.0,0.0,0.0,0.4242215987165654
4ySuGdFDDmaAr6JUXbD4UIY6BQ13,226.39347826087032,0.7888844267330716,0.0,0.0,0.0,0.0,383.73416666666355,280.79999999993015,127.05999999993946,153.4999999999709,0.008333333333333333,0.9791666666666666,0.9166666666666666,-0.0625,111,1217.3958333333333,1188.5,1065.8708333333295,1068.0999999999767,1.0,1.0,1.0,0.0,0.0,0.944903937765725,1347.4363636363362,1334.4499999999534,1269.363636363647,1284.9999999998836,0.9583333333333334,0.9583333333333334,0.9166666666666666,0.0,0.0,0.9597084527787136,1068.5043478261011,991.9000000001396,1089.2739130435107,1018.0999999998604,1.0,0.9583333333333334,0.9583333333333334,0.0,0.0,0.8600449972331686,866.280952380948,646.6999999999534,1150.423809523816,992.8000000000466,1.0,0.875,0.875,0.0,0.0,0.9106524370789324,493.50952380952157,498.2000000001863,936.8000000000022,915.5,0.9583333333333334,0.9166666666666666,0.875,0.0,0.0,0.04915077872755318
50R0P1MIMvRvK1qpqfGROchII6R2,-430.9130435093589,0.5995225717516889,0.016666666666666666,0.0,0.0,0.016666666666666666,318.9432203163545,227.84999990463257,136.5699998855591,177.44999969005585,0.09322033898305085,1.0,1.0,0.0,113,1124.5863636623728,947.1000001430511,996.9863636493683,856.7999999523163,0.9166666666666666,1.0,0.9166666666666666,0.0,0.0,0.9798754624925815,992.8166666825613,876.2500002384186,901.3958333730698,769.0499999523163,1.0,1.0,1.0,0.0,0.0,0.8833860862139178,794.8499999761582,718.1000001430511,865.8650000095367,790.8999998569489,1.0,0.8695652173913043,0.8695652173913043,0.0,0.041666666666666664,0.9351180579387159,688.6374999483427,580.2999999523163,985.4500000278155,909.1500000953674,1.0,1.0,1.0,0.0,0.0,0.882867250928294,665.0739130766495,590.2000002861023,1378.0260870145714,1477.3000001907349,1.0,1.0,1.0,0.0,0.041666666666666664,0.8143983281424003
5OOi73igsahMZ5IVKQwwyhnj4Cn2,-2.964583333368182,0.7533021171909473,0.0,0.0,0.0,0.0,299.58333333331007,107.69999999995343,59.56999999992549,78.44999999995343,0.44166666666666665,1.0,1.0,0.0,120,985.3583333332984,855.8000000000466,959.0999999999962,860.0500000000466,1.0,1.0,1.0,0.0,0.0,0.9924259292160665,888.9458333333217,777.6500000001397,966.9958333332519,873.4499999999534,1.0,1.0,1.0,0.0,0.0,0.9772723593349196,1008.3124999999806,901.5,1096.816666666593,1040.0,1.0,1.0,1.0,0.0,0.0,0.8628353296203671,695.1083333333178,584.0,1077.8375000000233,1030.4499999999534,1.0,1.0,1.0,0.0,0.0,0.9212140590101084,602.5541666666201,492.64999999990687,966.0124999999922,773.3000000000466,1.0,1.0,1.0,0.0,0.0,0.773006447764125
5Z68AKm9rIeeB2lVu3nJO7U31wk1,158.74999999978843,0.6577567346802116,0.0,0.0,0.0,0.0,505.4924999999998,405.55000000080327,122.39999999982538,259.7000000011176,0.05,0.9375,0.9583333333333334,0.02083333333333337,112,1052.6454545454208,1044.9500000001863,769.3318181816827,751.4499999992549,0.9583333333333334,0.9583333333333334,0.9166666666666666,0.0,0.0,0.5755936134715979,971.177272726951,820.7499999990687,790.9045454545624,662.1499999994412,1.0,0.9166666666666666,0.9166666666666666,0.0,0.0,0.8165034064034759,809.0217391300299,707.1999999992549,745.4304347827059,657.5,1.0,0.9583333333333334,0.9583333333333334,0.0,0.0,0.8241593738205757,508.8086956524007,450.0999999996274,711.6695652172456,636.7000000011176,0.9583333333333334,1.0,0.9583333333333334,0.0,0.0,0.7524054471435562,395.36363636346704,369.89999999944115,621.3681818183342,569.3999999994412,0.9583333333333334,0.9583333333333334,0.9166666666666666,0.0,0.0,0.2770055270776099
5rXSa3anB5ejmFrnwUsTB82byup1,-343.13768939393015,0.5348772105614661,0.0,0.0,0.008333333333333333,0.0,331.27478991596206,223.59999999962747,125.35999999968335,164.9000000001397,0.05042016806722689,1.0,0.9565217391304348,-0.04347826086956519,118,1071.7958333333565,1007.6000000000931,932.3041666666977,904.9000000001397,1.0,1.0,1.0,0.0,0.0,0.9700033889458816,1073.3999999999844,1085.8999999999069,974.9749999999962,915.8500000000931,1.0,1.0,1.0,0.0,0.0,0.9441948973138801,1024.1583333333062,960.75,1061.2250000000156,985.5000000002328,1.0,1.0,1.0,0.0,0.0,0.9444123577413295,725.0333333333256,669.1500000001397,1060.9624999999262,1029.8499999998603,1.0,1.0,1.0,0.0,0.0,0.8871684592004679,714.4000000000339,665.2500000002328,1296.777272727277,1334.5,1.0,0.9565217391304348,0.9565217391304348,0.041666666666666664,0.0,0.4904356412842223
5zxa5CMLGQSSonWOXqXf0QNS3PH3,-55.129444458749504,0.5951221919536832,0.0,0.0,0.0,0.0,434.3583333283614,324.10000002384186,151.8599999189377,199.77499997607083,0.025,1.0,1.0,0.0,116,1009.8095237924939,905.899999976158,829.3523809512457,802.0,0.875,1.0,0.875,0.0,0.0,0.8747456877342176,1027.37916666766,938.5500000119208,935.058333337307,857.0,1.0,1.0,1.0,0.0,0.0,0.9473060607408622,919.5260869731073,876.3999999761581,901.6347826200982,929.5,1.0,0.9583333333333334,0.9583333333333334,0.0,0.0,0.8821580938748078,644.5583333174387,602.8499999642372,873.4666666835546,867.2500000596046,1.0,1.0,1.0,0.0,0.0,0.8863375641745329,546.7375000019869,515.8999999761581,940.8583333492279,858.5500000119209,1.0,1.0,1.0,0.0,0.0,0.4380567157432333
62fAfeQc27bZelkPX7G54T3gvci2,181.2041666666628,0.7532883854810122,0.0,0.0,0.0,0.0,571.4,462.85000000009313,305.6099999999627,357.12499999976717,0.0,1.0,1.0,0.0,119,1497.3999999999844,1439.5,1206.7458333332713,1182.1500000003725,1.0,1.0,1.0,0.0,0.0,0.9698192573360258,1532.5458333333954,1423.7000000001865,1282.7208333333256,1168.899999999907,1.0,1.0,1.0,0.0,0.0,0.9244693996580947,1285.9434782608776,1144.0,1154.09130434781,1024.2999999998135,1.0,0.9583333333333334,0.9583333333333334,0.0,0.0,0.9161598934852653,1209.0874999999844,1157.8500000000931,1188.8500000000543,1221.7999999998137,1.0,1.0,1.0,0.0,0.0,0.6773586735022565,809.4541666665658,824.6499999999069,1063.5291666666355,994.3999999999069,1.0,1.0,1.0,0.0,0.0,0.6192605873436289
6ABZuv4jbjgE0B8TeyUk6nwVb122,-32.81391844977725,0.611957642254063,0.0,0.0,0.0,0.0,641.0450000007967,563.2999999523163,443.02999992370604,498.27499973765225,0.0,1.0,1.0,0.0,118,1461.3416666587193,1409.5999999046326,963.7208333412806,918.5499999523163,1.0,1.0,1.0,0.0,0.0,0.8018473504121373,1402.921739122142,1467.2000002861023,1037.7173912836158,967.6999998092653,0.9583333333333334,1.0,0.9583333333333334,0.0,0.0,0.9094626567347847,1309.9541666706402,1277.6000001430511,1039.408333381017,944.3999998569489,1.0,1.0,1.0,0.0,0.0,0.9004064960417713,925.1521739130435,781.5999999046326,934.921739122142,782.5999999046326,0.9583333333333334,1.0,0.9583333333333334,0.0,0.0,0.9363505810053899,706.5291666785876,633.7000000476837,1032.745833337307,979.7000000476837,1.0,1.0,1.0,0.0,0.0,0.6304112660807596
6OwhwWQDThSPHTVAeXugohrYuje2,-167.7652173730553,0.6650082595828196,0.008333333333333333,0.0,0.008333333333333333,0.008333333333333333,30.86666667053842,25.59999990463257,8.560000014305114,15.0,1.0,1.0,1.0,0.0,109,1804.773913031039,1863.7999999523165,1841.2869565227757,1884.6000000238416,1.0,1.0,1.0,0.0,0.041666666666666664,0.9996846291062091,1675.9099999904633,1819.5,1803.2600000023842,1949.300000071526,0.8695652173913043,1.0,0.8695652173913043,0.041666666666666664,0.0,0.9989402091510291,1451.2399999916554,1438.3500000238419,1729.8849999845029,1734.4500000476837,0.9583333333333334,0.8333333333333334,0.8333333333333334,0.0,0.0,0.998511993645521,1050.9260869596314,1096.399999976158,1628.969565204952,1674.8000000715256,0.9583333333333334,1.0,0.9583333333333334,0.0,0.0,0.9976879876615867,814.5304347743158,704.2999999523163,1991.3652173747187,1887.3000000715256,1.0,1.0,1.0,0.041666666666666664,0.0,0.9993577717609917
6WFCyGwk71XLPBmbe4Vav3eotVm1,86.82737155959546,0.8201659475840727,0.016666666666666666,0.0,0.0,0.016666666666666666,398.30423729298576,266.64999985694885,97.56999993307983,154.72499990469078,0.1271186440677966,0.9361702127659575,1.0,0.06382978723404253,115,976.7409090128812,975.1499998569489,855.463636376641,720.1000001430511,1.0,0.9565217391304348,0.9565217391304348,0.0,0.041666666666666664,0.9598002079960828,705.7090908397328,655.5499999523163,685.8954546018081,614.4000000953674,1.0,0.9166666666666666,0.9166666666666666,0.0,0.0,0.9296003591551439,665.6333333651224,650.2000002861023,763.7791665991148,779.1499998569489,1.0,1.0,1.0,0.0,0.0,0.8312847257267523,541.8833333651224,463.4500000476837,730.7208333810171,661.3500001430511,1.0,1.0,1.0,0.0,0.0,0.876866084364275,474.9652174244756,459.4000000953674,683.8521739296291,655.8000001907349,1.0,1.0,1.0,0.0,0.041666666666666664,0.5212898540815324
7cvQFrzIDEVAkFCcGAHZPUvJ2MF3,435.54130436544824,0.8345954112818194,0.0,0.0,0.0,0.0,364.6325000047781,151.80000007152557,63.29999995242106,81.05000001200824,0.35833333333333334,0.9583333333333334,1.0,0.04166666666666663,117,1277.5136363397944,1231.7999999523163,1143.3727272748947,1084.4500000476837,1.0,0.9166666666666666,0.9166666666666666,0.0,0.0,0.7379307403760317,1179.9999999801319,1034.049999833107,1212.670833349228,1126.5,1.0,1.0,1.0,0.0,0.0,0.9780001854800913,990.1541666885217,892.75,1142.7041666805744,1145.25,1.0,1.0,1.0,0.0,0.0,0.9071086501028853,700.8333333532015,553.75,975.1625000039736,775.9500000476837,1.0,1.0,1.0,0.0,0.0,0.8213218390943213,475.000000010366,456.7000000476837,743.9869565134463,724.3999998569489,0.9583333333333334,1.0,0.9583333333333334,0.0,0.0,0.2732660795114646
80UJMJbCOMgs6YVpsMgXfYTzw6o2,161.60290135363402,0.7734588836209146,0.0,0.0,0.0,0.0,467.97833333339855,356.3500000005588,176.3400000013411,243.5,0.0,0.9791666666666666,0.9166666666666666,-0.0625,115,1085.8130434784714,1028.7000000011176,922.5695652172132,866.8000000007451,1.0,0.9583333333333334,0.9583333333333334,0.0,0.0,0.9382384112277703,956.4958333331937,922.2999999998137,851.2624999999534,863.6499999994412,1.0,1.0,1.0,0.0,0.0,0.9034965928440318,822.533333333442,772.4000000013039,802.4708333332868,712.4000000003725,1.0,1.0,1.0,0.0,0.0,0.8606050074546158,657.5772727271542,617.0999999996275,778.5954545456916,733.5000000009313,1.0,0.9166666666666666,0.9166666666666666,0.0,0.0,0.8976808185077462,522.2954545454545,487.1000000005588,724.5545454547656,650.3000000007451,1.0,0.9166666666666666,0.9166666666666666,0.0,0.0,0.5431119178479884
87w5Le0CgZhSfYAaOH3Xd2fc98l1,147.71231884043664,0.7405814969340221,0.0,0.0,0.0,0.0,650.5533333335663,598.7000000011176,330.7300000000745,411.97499999860884,0.0,0.9583333333333334,1.0,0.04166666666666663,118,1523.0478260868592,1406.9000000022352,1081.017391304445,942.3000000007452,1.0,0.9583333333333334,0.9583333333333334,0.0,0.0,0.9482730194254784,1536.3521739134321,1560.800000000745,1165.373913043219,1153.4000000022352,1.0,0.9583333333333334,0.9583333333333334,0.0,0.0,0.8889822570162622,1189.2708333334886,1162.3999999985099,1009.6416666666046,910.5999999996275,1.0,1.0,1.0,0.0,0.0,0.8862513262988414,999.6124999998137,882.1999999992549,923.3583333327746,772.25,1.0,1.0,1.0,0.0,0.0,0.8548209116087966,814.929166666232,838.3000000007451,975.4833333333954,900.0500000007451,1.0,1.0,1.0,0.0,0.0,0.1777460058383132
8bwaafIhKVMNBoHaXFcY8HirS9u2,122.74530141383195,0.6312069227311902,0.0,0.0,0.0,0.0,388.6324999988089,238.75,127.25999999046326,156.1500000357628,0.0,0.9791666666666666,1.0,0.02083333333333337,118,1043.4565217598624,1026.5,932.2434782981873,932.2000000476836,1.0,0.9583333333333334,0.9583333333333334,0.0,0.0,0.9656717238315231,996.1666666666666,1011.5500001907347,948.9499999980131,972.4500000476837,1.0,1.0,1.0,0.0,0.0,0.9053613180941956,843.1391304264898,822.7999999523163,909.6608695776566,949.5,1.0,0.9583333333333334,0.9583333333333334,0.0,0.0,0.85215930150644,636.429166674614,599.6999999284744,860.9041666885217,788.7000000476837,1.0,1.0,1.0,0.0,0.0,0.584505855039165,514.7666666507721,491.85000002384186,818.0291666885217,799.0000001192093,1.0,1.0,1.0,0.0,0.0,-0.0382842090057813
8cOQBMgQEYSlJ4CK60pFMmBVEBV2,20.302083373069763,0.5623768523086193,0.008333333333333333,0.0,0.0,0.008333333333333333,707.9882353053628,631.6999998090323,387.43999977130443,508.7500000001164,0.0,1.0,1.0,0.0,119,1716.8875000476837,1610.5500001907349,1118.5541666348774,1077.75,1.0,1.0,1.0,0.0,0.0,0.7803043091311945,1452.2374999920528,1460.8499999046326,1071.2583332856495,1126.5,1.0,1.0,1.0,0.0,0.0,0.8007401126739156,1487.466666618983,1435.7500004768372,1069.4249999125798,1062.4499998092651,1.0,1.0,1.0,0.0,0.0,0.5670290306540117,1040.3652173747187,815.7000007629395,1038.147826111835,911.8999996185304,1.0,1.0,1.0,0.0,0.041666666666666664,0.8362600181328413,844.2041666110357,784.7499995231628,1074.6041665871937,990.1999998092651,1.0,1.0,1.0,0.0,0.0,0.4106547386435394
9NTZ091xWyOO8DgzyTGY0O3i8IR2,-447.9164410057798,0.38475591425417716,0.0,0.0,0.0,0.0,236.88916666662942,162.29999999934807,111.15999999931083,131.27499999967404,0.06666666666666667,0.9791666666666666,0.9166666666666666,-0.0625,116,1003.0130434781313,857.7000000001863,869.5956521740021,779.7000000001863,1.0,0.9583333333333334,0.9583333333333334,0.0,0.0,0.9402921475942507,943.2749999999456,881.7499999995343,939.0750000001086,930.100000000093,1.0,1.0,1.0,0.0,0.0,0.9771409795171966,855.0391304347178,725.8999999994412,965.0173913041616,878.2999999998137,1.0,0.9583333333333334,0.9583333333333334,0.0,0.0,0.8949710805136074,604.1541666667521,552.0999999996275,1001.8291666665269,982.149999999907,1.0,1.0,1.0,0.0,0.0,0.7618471544944282,526.5545454545116,488.59999999962747,1352.9909090909853,1498.2999999998137,1.0,0.9166666666666666,0.9166666666666666,0.0,0.0,0.6170182409126852
9Xz1RIwnPXgyRqmucudW9VeuDnq1,-219.75845410629063,0.7399620991869618,0.016666666666666666,0.0,0.0,0.016666666666666666,302.58974358974655,176.99999999988358,101.6,130.0,0.07692307692307693,0.9782608695652174,1.0,0.021739130434782594,111,1439.590909090925,1373.0000000000582,1304.4999999999893,1202.5,1.0,0.9565217391304348,0.9565217391304348,0.0,0.041666666666666664,0.9836793921370836,1259.9565217391457,1085.0000000001164,1245.0434782608493,1139.0,1.0,1.0,1.0,0.041666666666666664,0.0,0.9874876845648131,1115.71428571428,964.9999999998836,1216.6666666666722,1103.0,0.875,1.0,0.875,0.0,0.0,0.9523999624636328,936.5454545454651,728.4999999999418,1236.954545454556,1173.5,0.9583333333333334,0.9583333333333334,0.9166666666666666,0.0,0.0,0.8923869452569629,803.3478260869414,675.0,1493.8695652173863,1745.9999999998836,1.0,1.0,1.0,0.0,0.041666666666666664,0.642021538269026
9g0uWFg7uhR46Q0VoG6MzqHOUL12,-89.43945944132031,0.6732812746603771,0.041666666666666664,0.0,0.008333333333333333,0.05,546.8859649143681,513.3999999761581,164.8200000524521,325.72499999403954,0.05263157894736842,0.9302325581395349,0.9565217391304348,0.02628918099089994,105,1114.2411764719907,1131.7999999523165,812.3647058781455,788.3999999761581,0.9,0.95,0.85,0.0,0.16666666666666666,0.7158479193918666,1168.9150000095367,1225.5499999523163,992.8799999952316,899.75,0.9565217391304348,0.9130434782608695,0.8695652173913043,0.041666666666666664,0.0,0.9098417195277533,1105.1375000178814,938.5500000715256,941.2083333532015,860.8499999642372,1.0,1.0,1.0,0.0,0.0,0.7110746477413691,873.995833337307,720.1999999880791,929.7124999960264,767.0,1.0,1.0,1.0,0.0,0.0,0.9069162387995472,681.6599999904632,639.9499999880791,999.3799999773503,884.9999999403954,0.9130434782608695,0.9565217391304348,0.8695652173913043,0.0,0.041666666666666664,0.7226913233279625
A9AEg0g6c2P1Bk72HLmnK3oWJ9B2,157.9554077976561,0.7700881780448284,0.0,0.0,0.0,0.0,422.05583332578146,334.7500001192675,99.56999990940093,146.25,0.125,0.9791666666666666,1.0,0.02083333333333337,117,1118.882608683213,1060.5,1001.7043478385261,999.7999999523164,1.0,0.9583333333333334,0.9583333333333334,0.0,0.0,0.9285465336026391,1075.8125,1101.9500000476837,949.7208333412806,980.3999998569489,1.0,1.0,1.0,0.0,0.0,0.8266877409142935,841.0136363614689,714.7999999523163,901.0318181839856,825.6499999761581,1.0,0.9166666666666666,0.9166666666666666,0.0,0.0,0.9431278178224906,745.8666667044163,748.2000000476837,857.7041666507721,715.5999999046326,1.0,1.0,1.0,0.0,0.0,0.8655705787030001,506.8208333353202,455.90000009536743,817.2041666805744,648.6000000238419,1.0,1.0,1.0,0.0,0.0,0.8451702474422682
ASGvwW80q7VY7xFaLGZhVuErUQu2,-361.1738095964704,0.5847618952718825,0.0,0.008333333333333333,0.008333333333333333,0.0,132.45438592476575,111.69999980949797,71.26000099149533,90.99999999953434,0.3508771929824561,1.0,0.9166666666666666,-0.08333333333333337,107,1593.4055557250977,1630.7000007629395,1547.1555554072063,1563.6999998092651,0.9,1.0,0.9,0.16666666666666666,0.0,0.9966192905361195,1575.65416653951,1583.300000190735,1620.162500301997,1620.8000001907349,1.0,1.0,1.0,0.0,0.0,0.9845260237758169,1345.7049998283387,1344.8999996185303,1535.7649998664856,1543.2499990463257,0.9090909090909091,0.9545454545454546,0.9090909090909091,0.08333333333333333,0.0,0.9759799147520416,1213.4999997615814,1130.0499992370605,1701.1249997615814,1678.300000190735,1.0,1.0,1.0,0.0,0.0,0.994896739003193,880.9619047074091,841.8999996185303,1950.0476192292713,1935.400001525879,0.9583333333333334,0.9166666666666666,0.875,0.0,0.0,0.9623483772077309
AUKCfn4HzgVB7m6LNnh2gQb7G5s2,-31.05965898253703,0.7204730354482732,0.0,0.0,0.0,0.0,514.5649999539222,414.7999997139559,280.14000010469465,340.8750001192093,0.0,1.0,0.9583333333333334,-0.04166666666666663,117,1304.0458332896233,1181.9000000953674,1005.8041667342186,856.0499999523163,1.0,1.0,1.0,0.0,0.0,0.9825763567605675,1346.5958332618077,1118.5999999046326,1066.1583333611488,933.8499999046326,1.0,1.0,1.0,0.0,0.0,0.7932172108964476,1062.126086919204,1014.1999998092653,952.1391304472219,819.9000000953674,1.0,0.9583333333333334,0.9583333333333334,0.0,0.0,0.942466271822031,950.4541666309038,714.2000000476837,1019.7208333611488,865.0500001907349,1.0,1.0,1.0,0.0,0.0,0.8112732215217634,666.7045454111966,509.40000009536743,1067.0409090302207,863.8499999046326,0.9583333333333334,0.9583333333333334,0.9166666666666666,0.0,0.0,0.6535657417187078
AsXBOflrszVNKoFqbN61bMJqS0k2,29.13695651541161,0.5798438971820875,0.0,0.0,0.0,0.0,342.66250000098177,240.59999996429542,191.04000002145767,215.97500002384186,0.0,1.0,1.0,0.0,119,1466.62916666766,1423.0500000119207,1290.829166655739,1300.8000000119207,1.0,1.0,1.0,0.0,0.0,0.9779655475093176,1333.5874999761581,1358.7000000476837,1271.070833325386,1306.5,1.0,1.0,1.0,0.0,0.0,0.9814141896405766,1261.0958333263795,1242.149999976158,1317.4791666616995,1277.7499999403954,1.0,1.0,1.0,0.0,0.0,0.9561757618849629,886.3541666815678,823.6000000238419,1254.3250000079472,1199.8999999761581,1.0,1.0,1.0,0.0,0.0,0.9906820078917346,733.6608695569246,686.6999999284744,1251.813043475151,1135.0,0.9583333333333334,1.0,0.9583333333333334,0.0,0.0,0.4270814655373109
BbwUTWswjtPWhb5DvLAmh9Hdpyl2,-6.1189743590016406,0.6610389359452906,0.10833333333333334,0.008333333333333333,0.0,0.10833333333333334,416.03962264151215,355.6500000000233,183.04999999993015,224.3750000000582,0.0,0.975,0.8333333333333334,-0.1416666666666666,99,1670.9722222222092,1678.5,1394.6499999999844,1383.3499999999767,1.0,1.0,1.0,0.041666666666666664,0.20833333333333334,0.9365056694151835,1386.638095238113,1386.7000000001865,1228.4190476190277,1149.3000000000466,1.0,0.9545454545454546,0.9545454545454546,0.0,0.08333333333333333,0.9592879124878688,1291.2299999999698,1256.4000000000233,1301.6349999999861,1282.1999999999534,1.0,1.0,1.0,0.0,0.16666666666666666,0.9645562488092592,1074.904999999993,1048.1500000000233,1238.5899999999558,1252.6999999999534,1.0,0.9090909090909091,0.9090909090909091,0.0,0.08333333333333333,0.564751323971577,690.0199999999953,634.25,1311.2600000000093,1276.0999999999767,1.0,0.8333333333333334,0.8333333333333334,0.0,0.0,0.2657374709881969
BcCTlXWx6ARh4rBtkdWRgZH3C7H2,36.02277772691514,0.6635985730442697,0.0,0.0,0.0,0.0,549.2466666738193,445.5500000715256,330.97000005245206,367.50000005960464,0.0,0.9791666666666666,1.0,0.02083333333333337,117,1206.4782608799312,1173.7999999523165,874.4869564927143,813.2999999523163,0.9583333333333334,1.0,0.9583333333333334,0.0,0.0,0.8997952633506492,1173.0727272900667,1140.7000000476837,910.5772726860913,895.6499999761581,0.9583333333333334,0.9583333333333334,0.9166666666666666,0.0,0.0,0.8995628227920088,1010.7749999761581,937.1500000953674,919.1708333392938,808.8500000238419,1.0,1.0,1.0,0.0,0.0,0.9695244460730358,743.3208333452543,645.7499998807907,859.2666666507721,752.6000000238419,1.0,1.0,1.0,0.0,0.0,0.8678426725462293,578.1541666785876,552.8000000715256,856.1083333492279,817.3999999761581,1.0,1.0,1.0,0.0,0.0,0.4314311086568755
C4HWhqUIJ3Rl6SboyJGqlrXFAJJ2,206.03278985662735,0.7124187418690823,0.0,0.0,0.0,0.0,336.5741666754077,248.39999997615814,96.35000016690465,138.44999998810817,0.10833333333333334,0.9583333333333334,1.0,0.04166666666666663,116,1143.7863636558707,1078.5999999046326,1043.5999999913302,1019.3000000715256,1.0,0.9166666666666666,0.9166666666666666,0.0,0.0,0.9195483929262671,1153.0124999980133,1158.5,1112.574999988079,1015.9500000476837,1.0,1.0,1.0,0.0,0.0,0.879729507559495,899.0869565528373,900.1000001430511,1013.5521738943846,1007.5999999046326,0.9583333333333334,1.0,0.9583333333333334,0.0,0.0,0.8728791511224799,604.3391304534415,614.7999999523163,918.6999999751215,888.0999999046326,0.9583333333333334,1.0,0.9583333333333334,0.0,0.0,0.7709503433640207,403.89999997615814,387.64999997615814,873.5541666547457,806.3000000715256,1.0,1.0,1.0,0.0,0.0,0.6559887226304606
CDEoAyvS8feXLKMKsaZah9agEhF3,132.19999999998197,0.7670103697189452,0.0,0.0,0.0,0.0,524.5025000000111,423.79999999981374,312.54000000000235,361.10000000012224,0.0,1.0,1.0,0.0,119,1360.7666666667017,1375.0500000000466,1046.2208333332867,1112.399999999907,1.0,1.0,1.0,0.0,0.0,0.8831558354628621,1247.8217391303901,1152.6000000000931,996.7260869565096,971.5,0.9583333333333334,1.0,0.9583333333333334,0.0,0.0,0.9757853558418531,1145.0416666666085,1198.8499999998603,1036.0624999999807,963.4999999997672,1.0,1.0,1.0,0.0,0.0,0.9470168495269721,854.5541666666977,737.5,1013.7000000000893,1006.25,1.0,1.0,1.0,0.0,0.0,0.9096661968566495,623.025000000062,540.8000000000466,889.7999999999884,722.4000000001397,1.0,1.0,1.0,0.0,0.0,0.896658819467066
CGyTPhevTbSvVnZ8qSP0NtWuhgw1,292.49791664878524,0.8512511822860643,0.0,0.0,0.0,0.0,536.26249999404,394.7999999523163,212.46999990940094,258.02500009536743,0.008333333333333333,1.0,1.0,0.0,120,1289.7958333293598,1102.4499999284744,1056.9000000059605,923.9499999284744,1.0,1.0,1.0,0.0,0.0,0.9714166835698895,1040.4041666587193,889.0,834.395833303531,773.0999999046326,1.0,1.0,1.0,0.0,0.0,0.8202395672984326,792.1916666328907,709.9999998807907,745.9375,663.3500000238419,1.0,1.0,1.0,0.0,0.0,0.8111588962545966,792.6875,640.2999999523163,874.0749999880791,786.8000000715256,1.0,1.0,1.0,0.0,0.0,0.7731444300921951,532.1333333452543,552.8500000238419,653.1500000059605,626.2000000476837,1.0,1.0,1.0,0.0,0.0,0.5313770376100408
CN1ySCsiSLN4m9yh9fS4s5p6T8k1,-82.27007077856001,0.5901767697700148,0.0,0.0,0.0,0.0,530.9769230769174,439.5,322.9599999999395,395.5999999999767,0.0,0.9347826086956522,1.0,0.06521739130434778,110,1754.8909090909028,1720.2999999999884,1297.4545454545403,1248.0,1.0,0.9565217391304348,0.9565217391304348,0.041666666666666664,0.0,0.7439651899323582,1435.109523809526,1469.0,1119.047619047619,1121.4000000000233,1.0,0.9130434782608695,0.9130434782608695,0.041666666666666664,0.0,0.8990888237167327,1415.6904761904707,1367.0,1285.0380952380863,1257.1999999999534,0.9166666666666666,0.9583333333333334,0.875,0.0,0.0,0.949750299862869,1243.0434782608747,1153.4000000000233,1390.386956521735,1326.9000000000233,1.0,0.9583333333333334,0.9583333333333334,0.0,0.0,0.8972336457488989,847.0086956521719,833.8000000000466,1292.595652173906,1141.5,1.0,1.0,1.0,0.041666666666666664,0.0,0.6221411998557378
CUNlBEszJVRGK1jWlTaOaCqpDg53,119.9629870131048,0.7799610401856609,0.0,0.0,0.06666666666666667,0.05,440.11636363641594,336.90000000037253,132.97000000011175,166.6500000008091,0.00909090909090909,0.9777777777777777,1.0,0.022222222222222254,105,1352.4550000000745,1266.6500000003725,1140.270000000298,1040.800000000745,1.0,0.9523809523809523,0.9523809523809523,0.125,0.0,0.9519371028590641,1373.4772727273573,1445.4500000001863,1203.3954545455053,1208.5499999998137,0.9166666666666666,1.0,0.9166666666666666,0.0,0.0,0.7981174739872352,1144.7850000000558,1087.2499999990687,1175.835000000056,1121.3499999996275,0.9523809523809523,1.0,0.9523809523809523,0.125,0.0,0.9324814331792116,840.2380952380065,838.6999999992549,1093.2095238091867,1014.1999999992548,1.0,1.0,1.0,0.125,0.0,0.8942770264079303,676.2227272726595,628.4500000001863,1053.372727272778,1022.7000000001863,0.9565217391304348,1.0,0.9565217391304348,0.041666666666666664,0.0,0.6374015485090732
Cbkx2NHyF3NrebzXGqNgSfiWent1,-372.8666666643694,0.32096074154335313,0.0,0.0,0.0,0.0,301.85500000057124,200.5,110.17999999970198,141.2500000037253,0.1,1.0,1.0,0.0,120,1100.9500000004966,1108.5500000044703,927.3041666659216,871.0,1.0,1.0,1.0,0.0,0.0,0.8888746623829509,1179.3125,1181.5499999895692,1076.7208333344508,970.0999999940395,1.0,1.0,1.0,0.0,0.0,0.9013815090721369,957.2916666654249,926.9499999955297,995.3875000004967,966.8500000014901,1.0,1.0,1.0,0.0,0.0,0.8149425633737003,754.1583333319674,639.9999999925494,1111.0041666670393,1047.8500000014901,1.0,1.0,1.0,0.0,0.0,0.8099258750688773,625.5125000004967,624.7000000029802,1374.8791666645557,1622.6499999985099,1.0,1.0,1.0,0.0,0.0,-0.13422310944684965
Co587hoelyeANqFX7AYvuVQW0lZ2,50.300177308737375,0.71144788286121,0.0,0.0,0.0,0.0,445.559999999402,335.84999999403954,177.39999995231628,238.64999997615814,0.0,1.0,1.0,0.0,118,933.2130434798157,871.0,738.7869565253673,691.5999999642372,0.9583333333333334,1.0,0.9583333333333334,0.0,0.0,0.966343365376914,846.6375000004967,765.0999999940395,713.5666666676601,642.9500000178814,1.0,1.0,1.0,0.0,0.0,0.7410716921739584,740.0130434787792,630.0999999642372,758.1565217375755,672.8999999761581,1.0,0.9583333333333334,0.9583333333333334,0.0,0.0,0.9585152128672887,467.5291666686535,429.7500000298023,680.3833333353201,654.9499999880791,1.0,1.0,1.0,0.0,0.0,0.7840591968879307,429.7958333392938,409.15000000596046,675.6083333318433,598.0999999940395,1.0,1.0,1.0,0.0,0.0,0.410695119871689
CtJe4bZZnYUBNrcPk00d3YQFSGp2,108.17678916830266,0.6191815684435329,0.0,0.0,0.0,0.0,677.879999999962,648.4499999998952,292.68999999957157,450.1750000001921,0.0,0.9791666666666666,0.9166666666666666,-0.0625,116,1620.5695652173752,1588.4000000003723,1121.278260869632,1087.8000000002794,1.0,0.9583333333333334,0.9583333333333334,0.0,0.0,0.7117386885493365,1426.487499999969,1326.8499999998603,1092.025000000033,923.1000000000931,1.0,1.0,1.0,0.0,0.0,0.8753989818194262,1315.2913043478038,1280.2000000001865,1025.6913043478119,941.8999999999068,1.0,0.9583333333333334,0.9583333333333334,0.0,0.0,0.770751712587728,1112.7458333333489,1004.6500000001397,1041.5041666667287,931.75,1.0,1.0,1.0,0.0,0.0,0.5587032571357052,772.5409090909048,716.5499999999302,998.1636363636618,923.9000000000233,1.0,0.9166666666666666,0.9166666666666666,0.0,0.0,0.22959424058932093
DAKDKPH698P12JfTbbjemLI6PIH2,12.952083331843255,0.4446715120408445,0.0,0.0,0.0,0.0,393.9533333306516,293.5,246.90000002980233,265.49999998509884,0.0,1.0,1.0,0.0,120,1108.9958333298564,1100.3499999940395,863.3624999970198,876.3999999761581,1.0,1.0,1.0,0.0,0.0,0.8382109021061447,1010.1708333293597,1018.5,892.3916666656733,897.3000000119209,1.0,1.0,1.0,0.0,0.0,0.9491590992459561,781.2208333387971,740.6500000059605,814.1875000024835,780.3499999940395,1.0,1.0,1.0,0.0,0.0,0.95064087216032,559.4291666646799,508.8499999642372,839.9249999995033,813.5499999821186,1.0,1.0,1.0,0.0,0.0,0.9218485174382306,428.0750000004967,391.40000000596046,864.9249999995033,777.5499999523163,1.0,1.0,1.0,0.0,0.0,0.8271184347861751
DPvStUYSmohmXwFwaKRqHv89R3k1,69.53568840696323,0.649857978851616,0.0,0.0,0.0,0.0,582.6616666654746,508.1500000357628,321.2,373.9750000536442,0.0,0.9791666666666666,1.0,0.02083333333333337,114,1322.0173913033111,1263.7999999523165,915.4478260900663,851.6999999284744,0.9583333333333334,1.0,0.9583333333333334,0.0,0.0,0.8351546444249927,1220.0434782401376,1190.5999999046326,897.5652173964874,959.2000000476836,1.0,0.9583333333333334,0.9583333333333334,0.0,0.0,0.7642084180989298,1074.9666666636865,1012.1499999761581,932.6708333392938,853.1999999880791,1.0,1.0,1.0,0.0,0.0,0.9414173100880042,757.7549999773503,630.3500000238419,861.2200000047684,665.0999999642372,0.9583333333333334,0.875,0.8333333333333334,0.0,0.0,0.8917791238645999,528.6791666547457,499.7000000476837,836.9708333363136,772.7000000476837,1.0,1.0,1.0,0.0,0.0,0.36640556178120715
DaRehVxIOhXtEtUExdgvUl0mKcx2,10.356521736514196,0.6829611205954035,0.008333333333333333,0.016666666666666666,0.016666666666666666,0.025,739.7876106231613,619.6999999880791,431.91999999284747,502.2000000476837,0.0,1.0,1.0,0.0,109,1808.8227272711017,1798.7000000178814,1320.6590909063816,1292.9000000059605,1.0,1.0,1.0,0.08333333333333333,0.0,0.8419441424853292,1662.9350000083446,1623.2500000298023,1243.0449999898672,1225.699999988079,0.9090909090909091,1.0,0.9090909090909091,0.041666666666666664,0.041666666666666664,0.8745387377372221,1587.8652173954508,1460.100000023842,1248.3000000041463,1184.600000023842,0.9583333333333334,1.0,0.9583333333333334,0.0,0.0,0.8642465401558387,1379.4666666672342,1282.600000023842,1302.2238095175653,1214.800000011921,1.0,0.9545454545454546,0.9545454545454546,0.08333333333333333,0.0,0.6592664269956757,1088.013043473596,970.5,1273.3434782572415,1178.9000000357628,1.0,1.0,1.0,0.041666666666666664,0.0,0.7414836253410887
DxSidjznjVSNDJuDqqGgxpMEGtw1,-174.72305988948256,0.6607186663992662,0.025,0.008333333333333333,0.041666666666666664,0.06666666666666667,705.8153153174651,579.4000000953674,351.59999990457436,399.8000000715838,0.0,0.9545454545454546,0.9583333333333334,0.0037878787878787845,106,1635.7285714035943,1623.5,1198.5047619456336,1147.6000001430511,0.9545454545454546,1.0,0.9545454545454546,0.041666666666666664,0.041666666666666664,0.7854351932292221,1613.7700000166892,1493.5,1233.9499999642371,1099.0999999046326,1.0,0.9090909090909091,0.9090909090909091,0.08333333333333333,0.0,0.8562890705484894,1824.4285714285713,1737.0999999046326,1434.457142863955,1427.5,1.0,1.0,1.0,0.08333333333333333,0.041666666666666664,0.833602593816724,1311.181818170981,1184.0500000715256,1287.3681817921724,1213.6499999761581,1.0,1.0,1.0,0.041666666666666664,0.041666666666666664,0.774169030954521,1210.4409090822394,1101.5,1390.518181844191,1223.25,0.9583333333333334,0.9583333333333334,0.9166666666666666,0.0,0.0,0.672695360297264
DzB19GqCB7fyrlEPexogWkjFzEx2,147.39130431955516,0.7669413353746356,0.0,0.0,0.008333333333333333,0.0,522.4715517204373,415.9500000477128,208.55000007152557,290.125,0.0,1.0,0.9565217391304348,-0.04347826086956519,113,1590.8124999900658,1504.1499999761581,1251.7583333353202,1145.1500000953674,1.0,1.0,1.0,0.0,0.0,0.8563351254971139,1400.681818170981,1229.1999999284744,1082.986363638531,1080.4500000476835,1.0,1.0,1.0,0.08333333333333333,0.0,0.7519944321595707,1514.5956521552541,1388.0,1379.539130407831,1391.6999998092651,1.0,1.0,1.0,0.041666666666666664,0.0,0.8509158844993807,1029.2272727272727,772.6000000238419,1243.3272727402773,1077.1999999284744,1.0,0.9166666666666666,0.9166666666666666,0.0,0.0,0.9633969331158517,641.1772727424449,570.5499999523163,1023.6500000303441,854.5499999523163,1.0,0.9565217391304348,0.9565217391304348,0.041666666666666664,0.0,0.8129216856965371
EEodWwGh0wWq5f8JmzfKvq0lyeu1,122.54329004329043,0.686785439927383,0.0,0.016666666666666666,0.0,0.0,578.1610169491545,490.4999999999418,138.00000000000003,299.0,0.06779661016949153,0.9347826086956522,0.9166666666666666,-0.018115942028985588,106,1303.5263157894615,1304.0,958.8947368421175,910.0000000000582,0.9565217391304348,0.8695652173913043,0.8260869565217391,0.041666666666666664,0.0,0.7045016038702044,1129.869565217404,1080.0,949.8695652173964,910.0000000001164,1.0,1.0,1.0,0.041666666666666664,0.0,0.8620577868770638,1094.3500000000088,938.5,963.9499999999855,904.0,0.9583333333333334,0.875,0.8333333333333334,0.0,0.0,0.873005740011879,892.0909090909144,758.5000000001164,932.4545454545402,810.4999999999418,0.9583333333333334,0.9583333333333334,0.9166666666666666,0.0,0.0,0.6433898405917026,693.0909090909091,597.5000000000291,831.4090909090988,836.5000000000291,1.0,0.9166666666666666,0.9166666666666666,0.0,0.0,0.24258341801928796
EUhcW9kURScie1DwGPHqmNqotJB2,162.64143871632996,0.7405624115942709,0.0,0.025,0.0,0.0,494.0794871750041,402.90000009536743,209.85999994277955,243.0,0.0,1.0,0.9565217391304348,-0.04347826086956519,111,1425.6826086769934,1312.7999999523165,1112.5869565217392,1082.2000000476835,1.0,1.0,1.0,0.041666666666666664,0.0,0.920364732929193,1293.2958333194256,1204.4500000476837,1049.420833359162,971.5,1.0,1.0,1.0,0.0,0.0,0.6760086243697883,1143.9952381111327,989.7000000476836,1140.2999999977294,1043.0,0.9583333333333334,0.9166666666666666,0.875,0.0,0.0,0.9783695873384225,809.8681817813354,716.5999999046326,966.0045454502106,862.5499999523163,1.0,1.0,1.0,0.041666666666666664,0.0,0.7195885309563116,599.7523809501103,573.2999999523163,917.6904761904761,881.2000000476837,1.0,0.9565217391304348,0.9565217391304348,0.041666666666666664,0.0,0.2057627845205478
EmfmKFDgWJdW47a6CNTNjnbYaPh2,61.319999993840725,0.6083346832809176,0.0,0.008333333333333333,0.0,0.0,725.705932203996,659.6000000238419,409.66999999284747,475.625,0.0,1.0,1.0,0.0,114,1639.5043478271236,1654.100000023842,1053.530434789865,979.2000000476836,0.9583333333333334,1.0,0.9583333333333334,0.0,0.0,0.8696924668087276,1523.4954545389521,1595.8499999642372,1027.5999999859116,953.5999999642372,0.9565217391304348,1.0,0.9565217391304348,0.041666666666666664,0.0,0.7610098803618871,1349.3952380759376,1302.0999999046326,1087.7380952437718,1148.2000000476835,0.9565217391304348,0.9565217391304348,0.9130434782608695,0.041666666666666664,0.0,0.8187050579849577,1160.766666650772,1036.2999999523165,1130.0958333263795,981.8500000238421,1.0,1.0,1.0,0.0,0.0,0.8762196034237146,774.2875000089407,750.6500000357628,979.5333333363136,880.1999999284744,1.0,1.0,1.0,0.0,0.0,0.38843995145362775
EoToosG69XMp4LTYdB6sB9WTrv22,114.62500007947278,0.6883544629664246,0.0,0.0,0.0,0.0,610.1683333277741,496.3000001908513,312.7599997520447,388.375,0.0,1.0,1.0,0.0,120,1251.5999999841054,1207.0500001907349,867.4208333889643,791.7500002384186,1.0,1.0,1.0,0.0,0.0,0.914828462177952,990.7041666507721,935.5500001907349,725.3291666905085,682.5499999523163,1.0,1.0,1.0,0.0,0.0,0.844438398809494,928.1041666269302,932.75,771.3875000278155,729.6500000953674,1.0,1.0,1.0,0.0,0.0,0.7146812217212825,847.491666674614,771.4500000476837,874.7124999960264,781.5499999523163,1.0,1.0,1.0,0.0,0.0,0.7889651705082984,592.4541666507721,571.4500000476837,681.7499999602636,674.0499997138977,1.0,1.0,1.0,0.0,0.0,0.023679619653935544
Fz7EUjZCLuUBxLDUVtN6djaBTy42,-619.3257246118956,0.16485466774720556,0.0,0.0,0.0,0.0,223.40416667262227,193.2000000475673,134.63000004281056,159.00000002974411,0.008333333333333333,1.0,1.0,0.0,118,1126.1454545584593,1011.0500000119207,959.7863636341962,811.3499999642372,0.9166666666666666,1.0,0.9166666666666666,0.0,0.0,0.9818129596755143,1088.25,1048.3999999761581,1035.1041666666667,964.0499999523163,1.0,1.0,1.0,0.0,0.0,0.9600009070111002,840.5874999960264,803.8500000238419,933.2416666497787,892.3000000119209,1.0,1.0,1.0,0.0,0.0,0.840727288346241,708.1166666597128,667.9499999880791,1125.3625000019867,1075.850000023842,1.0,1.0,1.0,0.0,0.0,0.9500879948935378,619.1083333243927,620.6999999880791,1618.4083333065112,1612.2499999403954,1.0,1.0,1.0,0.0,0.0,0.4892188400642643
G1Ff3XYUZMRsPafyEQ80ussnVlf1,-6.4309523843583065,0.6658556106836572,0.0,0.0,0.0,0.0,471.5383333355188,415.60000002384186,199.4600000023842,286.75,0.0,0.8958333333333334,0.875,-0.02083333333333337,107,1158.6599999904633,1132.75,892.7799999952316,862.6500000357628,1.0,0.8333333333333334,0.8333333333333334,0.0,0.0,0.8405636494390896,1158.7409090887415,1152.550000011921,973.6954545432872,1009.25,0.9583333333333334,0.9583333333333334,0.9166666666666666,0.0,0.0,0.8743505881080946,1143.5999999727521,1193.4000000953674,1085.3380952108473,1034.2000000476835,1.0,0.875,0.875,0.0,0.0,0.8821262499883163,884.7739130569541,698.2999999523163,1039.8086956428444,846.3999999761581,1.0,0.9583333333333334,0.9583333333333334,0.0,0.0,0.8770730487906292,541.4809523934409,550.6000000238419,941.5952380952381,903.5999999046326,1.0,0.875,0.875,0.0,0.0,0.7088941286038318
GDZGRW51kbWtAdUIHCtEd8sAtqY2,109.51472222871257,0.7421612464710973,0.0,0.0,0.0,0.0,491.55250000159333,382.39999997609993,242.3000001669978,289.45000010728836,0.0,0.9791666666666666,1.0,0.02083333333333337,112,1217.818181829019,1209.8500000238419,955.868181813847,895.75,0.9166666666666666,0.9583333333333334,0.9166666666666666,0.0,0.0,0.9531008237105647,1060.8304347784622,967.6999998092653,885.3695652381233,808.5,0.9583333333333334,1.0,0.9583333333333334,0.0,0.0,0.9720877672170488,938.4590909372677,848.1499999761581,901.6136363744736,814.3999999761581,0.9583333333333334,0.9583333333333334,0.9166666666666666,0.0,0.0,0.8539417571422521,646.4380952517191,534.3999998569489,828.990476165499,782.3000001907349,0.875,1.0,0.875,0.0,0.0,0.9210113934510236,450.975000033776,401.35000002384186,810.3208333353201,750.2000000476837,1.0,1.0,1.0,0.0,0.0,0.3528931604759107
GE4hogtdLdTFbNasENgtm6SO3hC3,-535.1391304325905,0.4128626059661028,0.0,0.0,0.0,0.0,212.14333333523052,147.34999999392312,110.68000001609326,123.89999999833526,0.041666666666666664,0.9583333333333334,1.0,0.04166666666666663,117,1148.1130434805932,970.5,1044.0652173900087,924.7000000178814,1.0,0.9583333333333334,0.9583333333333334,0.0,0.0,0.9812648565367602,1072.0478260905845,984.8000000119208,1054.556521738353,992.2000000178814,1.0,0.9583333333333334,0.9583333333333334,0.0,0.0,0.9324464438235971,863.6913043467895,790.0999999940395,1005.191304344198,918.2000000178814,0.9583333333333334,1.0,0.9583333333333334,0.0,0.0,0.9780012541678561,652.9958333335817,634.6500000208616,1011.6208333335817,1003.8999999910594,1.0,1.0,1.0,0.0,0.0,0.44963614105194005,630.3874999992549,607.6499999910593,1584.4499999967713,1646.9000000059605,1.0,1.0,1.0,0.0,0.0,0.27570052900263103
GEwkBw3YHaNp3TCh9YS9PKVfavz1,-191.2529255279095,0.4850011023348906,0.0,0.0,0.0,0.0,308.96916666825905,177.90000000596046,44.43000000119209,59.400000005960464,0.36666666666666664,0.9791666666666666,1.0,0.02083333333333337,119,1031.878260869047,1015.899999976158,921.9869565238123,822.9000000357628,1.0,0.9583333333333334,0.9583333333333334,0.0,0.0,0.8916069322730249,957.9874999945363,864.7999999821186,926.0458333343267,897.1000000238419,1.0,1.0,1.0,0.0,0.0,0.8256635069435797,804.0916666686535,733.75,905.287499996523,836.2499999701977,1.0,1.0,1.0,0.0,0.0,0.8407879908478532,621.0458333392938,534.4000000059605,926.2291666641831,859.0500000119209,1.0,1.0,1.0,0.0,0.0,0.7492884537470224,543.4875000069538,511.44999998807907,1115.3124999975164,1085.3499999642372,1.0,1.0,1.0,0.0,0.0,0.28288606447979503
HSggdq91WiQp16bOj7V3dABkcgk2,22.49374997864163,0.7611520412198626,0.0,0.0,0.0,0.0,562.6591666708322,485.9000000357628,305.97999999522,377.39999997615814,0.0,1.0,1.0,0.0,120,1318.324999993046,1324.0500000119207,903.879166662693,791.1000000238419,1.0,1.0,1.0,0.0,0.0,0.8984300558471773,1031.7666666756074,986.25,800.8666666497787,770.1999999880791,1.0,1.0,1.0,0.0,0.0,0.9694199266903022,1163.4625000059605,1160.0,1028.7416666646798,981.1499999761581,1.0,1.0,1.0,0.0,0.0,0.9538547186549222,702.7125000059605,628.0000000596046,789.445833315452,744.1000000238419,1.0,1.0,1.0,0.0,0.0,0.7443169560712386,565.4166666616997,485.5,829.8791666775942,789.7000000476837,1.0,1.0,1.0,0.0,0.0,0.6111095378287188
HbydnnT1hUP3WagAy2TJAc6GqVs2,-711.5143939527597,0.47478197247230264,0.041666666666666664,0.0,0.0,0.041666666666666664,71.82869565590771,75.79999995219987,23.13999996185303,43.300000071525574,0.8,1.0,1.0,0.0,115,1316.9304348282192,1259.9000000953674,1315.4695652256842,1259.5,1.0,1.0,1.0,0.0,0.041666666666666664,0.9969475300371025,1052.076190460296,1061.2000000476835,1155.566666671208,1134.7999999523165,1.0,1.0,1.0,0.0,0.125,0.995853467671738,1121.3999999960263,1160.5499999523163,1367.4791666567326,1447.6000000238419,1.0,1.0,1.0,0.0,0.0,0.9937308791037791,851.5521739358487,723.1000001430511,1394.5652174120364,1234.0,1.0,1.0,1.0,0.0,0.041666666666666664,0.9956332036012875,817.1833333273729,705.7000000476837,1950.6666666865349,1875.7500000000002,1.0,1.0,1.0,0.0,0.0,0.9933058614572617
HyQM2xKwwuVfqidmRYF6TiRk90C2,-784.6937500024216,0.1660222187261297,0.0,0.0,0.0,0.0,179.77083333282886,152.94999999552965,106.35000000596047,122.47499999776483,0.058333333333333334,1.0,1.0,0.0,119,997.3000000001242,885.8499999940395,889.1166666646799,774.6999999955297,1.0,1.0,1.0,0.0,0.0,0.9770927552328805,859.96666666617,816.6499999910593,833.0875000003725,824.7000000029802,1.0,1.0,1.0,0.0,0.0,0.6602544095256023,820.5086956529514,697.1999999880791,945.5739130436078,825.6999999880791,0.9583333333333334,1.0,0.9583333333333334,0.0,0.0,0.8988178345375584,657.1166666671634,581.75,1108.8499999996275,1032.5000000074506,1.0,1.0,1.0,0.0,0.0,0.9549224251772265,605.9666666643074,534.3999999985099,1645.7958333349477,1605.3500000089407,1.0,1.0,1.0,0.0,0.0,0.8518768560810615
IaTJhUGICmO9xcL3605RW8QHneN2,107.14048309213877,0.7870409084051934,0.0,0.0,0.0,0.0,656.9724999996513,584.3499999940395,327.50000000298024,418.4250000119064,0.0,0.9791666666666666,1.0,0.02083333333333337,113,1222.5238095252287,1215.699999988079,804.7238095232418,680.8000000119209,0.9166666666666666,0.9583333333333334,0.875,0.0,0.0,0.9004466075960041,1181.4208333306015,1247.5999999940395,802.9208333306015,759.7999999970198,1.0,1.0,1.0,0.0,0.0,0.891861966440641,935.4304347802763,830.8000000119209,760.1391304316728,608.2999999821186,1.0,0.9583333333333334,0.9583333333333334,0.0,0.0,0.8635965266376967,623.0363636341962,571.6000000089407,614.8363636393439,555.5000000149012,1.0,0.9166666666666666,0.9166666666666666,0.0,0.0,0.8461409854721175,536.9478260926578,509.8000000119209,696.6217391283616,643.9000000059605,0.9583333333333334,1.0,0.9583333333333334,0.0,0.0,0.8217434256927298
JOBWLirr6KYf3GXJ3jPFKmd48S93,-180.8627783732602,0.5761648013416013,0.025,0.0,0.008333333333333333,0.025,289.7008620659903,130.39999997621635,22.0,68.4750000089989,0.41379310344827586,0.9565217391304348,1.0,0.04347826086956519,109,1243.3863636417823,1133.0,1100.3318181769414,1022.7999999821186,1.0,0.9565217391304348,0.9565217391304348,0.0,0.041666666666666664,0.8601795696333452,1170.0157894711745,1123.5,1155.0789473715581,1145.199999988079,0.8695652173913043,0.9565217391304348,0.8260869565217391,0.0,0.041666666666666664,0.8749201539422785,1047.2954545427453,1031.75,1199.7227272689342,1180.2000000178814,1.0,0.9565217391304348,0.9565217391304348,0.0,0.041666666666666664,0.858143840891883,1002.5521739177082,746.6000000238419,1353.8304347810538,1107.0,1.0,0.9583333333333334,0.9583333333333334,0.0,0.0,0.8451099184928008,684.269565222056,646.2999999523163,1306.5652173964875,1297.0,1.0,1.0,1.0,0.041666666666666664,0.0,0.13476456659449706
Jp6aXC9KLjcFZBaQdZl4i9dUscl1,166.2550724601184,0.7607182907568428,0.0,0.0,0.0,0.0,566.5546218502417,445.69999998807907,282.04000000953675,358.5000000298023,0.0,1.0,1.0,0.0,115,1253.241666674614,1128.050000011921,860.5708333378037,787.1999999880791,1.0,1.0,1.0,0.0,0.0,0.860132994095849,1146.445833330353,1110.1500000059605,967.4958333298564,967.1999999880792,1.0,1.0,1.0,0.0,0.0,0.9348192623219864,1007.6904761876378,975.0,888.4714285617783,822.0999999642372,0.9583333333333334,0.9166666666666666,0.875,0.0,0.0,0.9448274239935329,731.9652173985605,588.4000000357628,850.3217391345812,789.3000000119209,1.0,1.0,1.0,0.041666666666666664,0.0,0.8206100357919622,574.1652173892311,561.3999999761581,747.7782608737116,722.1999999880791,0.9583333333333334,1.0,0.9583333333333334,0.0,0.0,0.5228012243939947
JvrZiMHtAfP6gvQtlevYWafKy0z2,-43.07291662693024,0.4953080554600324,0.0,0.0,0.0,0.0,465.05999999046327,398.5000000001164,261.6399997710134,322.2000000477419,0.0,1.0,1.0,0.0,120,1193.074999968211,1127.6499996185303,868.695833325386,870.9000000953674,1.0,1.0,1.0,0.0,0.0,0.6425475070989966,1074.1249999602635,1004.8499999046326,902.008333404859,829.9000000953674,1.0,1.0,1.0,0.0,0.0,0.9254113311288534,1069.2291666269302,990.7999997138976,1001.1624999841055,939.8999996185303,1.0,1.0,1.0,0.0,0.0,0.8761292069329266,631.2750000953674,563.0999999046326,804.1958332856497,740.0999999046326,1.0,1.0,1.0,0.0,0.0,0.9029151678741009,461.5583333571752,475.19999980926514,928.4249999920527,914.5999999046326,1.0,1.0,1.0,0.0,0.0,0.39878335170362744
K26uNuY0VNPjJNF26wEx3bFg0kr2,-475.68973577239433,0.29029718353009104,0.0,0.008333333333333333,0.0,0.0,263.9381355932111,152.20000000018626,78.07999999974854,96.37500000008731,0.2796610169491525,0.9565217391304348,1.0,0.04347826086956519,109,1156.0399999999674,1137.3499999998603,971.130000000028,882.8000000000466,0.8695652173913043,1.0,0.8695652173913043,0.041666666666666664,0.0,0.8264258172690261,943.6333333333688,967.3999999999068,930.180952380877,893.5,1.0,0.9130434782608695,0.9130434782608695,0.041666666666666664,0.0,0.96984445765064,980.0130434782528,950.6000000000932,1101.4695652173832,1095.2999999998135,1.0,0.9583333333333334,0.9583333333333334,0.0,0.0,0.7663359713161657,761.3714285714419,620.0,1180.4952380953223,1075.7999999998135,0.9583333333333334,0.9166666666666666,0.875,0.0,0.0,0.9243909942394406,563.3000000000271,520.75,1425.845833333345,1466.1999999999534,1.0,1.0,1.0,0.0,0.0,0.3078794694912559
K7ykiXe6CqQUKpEzs2nYrMTVuDA2,112.02127659576422,0.6478056316884141,0.0,0.0,0.0,0.0,539.2333333333314,456.5,261.9,339.75,0.0,0.9791666666666666,1.0,0.02083333333333337,117,1160.6521739130233,1135.0,849.6521739130435,810.0000000002328,1.0,0.9583333333333334,0.9583333333333334,0.0,0.0,0.6882618689267046,1018.6249999999903,974.4999999998254,797.5000000000194,775.5000000000582,1.0,1.0,1.0,0.0,0.0,0.8800906645832229,935.7916666666521,914.0,828.2083333333043,798.0,1.0,1.0,1.0,0.0,0.0,0.7668897625354734,633.227272727278,598.5000000000582,766.2272727272886,726.5000000000582,1.0,0.9166666666666666,0.9166666666666666,0.0,0.0,0.8239847265300007,513.958333333343,474.0,710.9999999999903,691.0,1.0,1.0,1.0,0.0,0.0,0.36817973219559186
KtKj6zUKc5Oogd2itg2jdwkchnf2,-701.1988877652833,-0.04042162037239111,0.09166666666666666,0.0,0.0,0.09166666666666666,35.74403669737245,34.399999998509884,11.679999998211862,24.900000002235174,1.0,1.0,0.9583333333333334,-0.04166666666666663,108,922.0714285712512,911.5,947.804761904691,950.3000000007452,1.0,1.0,1.0,0.0,0.125,0.9974974622330195,749.1500000000339,710.3000000007451,870.950000000271,852.5999999996275,1.0,1.0,1.0,0.0,0.08333333333333333,0.9953576708004421,590.2454545455562,552.3000000007451,868.6272727271372,824.6999999992549,1.0,1.0,1.0,0.0,0.08333333333333333,0.9954163951153001,537.2600000003353,494.69999999925494,1108.7499999998138,1066.050000000745,1.0,1.0,1.0,0.0,0.16666666666666666,0.9964183779341034,438.03043478273827,391.6000000014901,1609.6826086956198,1590.10000000149,1.0,0.9583333333333334,0.9583333333333334,0.0,0.0,0.9927374243284025
LSLmd8jENtONZFVkIpRDX665Bu73,-161.32121211350568,0.6917648058587031,0.18333333333333332,0.0,0.008333333333333333,0.18333333333333332,254.77446808206213,45.39999997615814,25.64000008106232,30.59999990463257,0.5638297872340425,1.0,0.9473684210526315,-0.052631578947368474,86,1506.8941176638884,1621.8000001907349,1333.7529411876903,1214.9000000953674,0.8947368421052632,1.0,0.8947368421052632,0.0,0.20833333333333334,0.9290763951274683,986.4000000208616,1087.5500000715256,1003.3937499821186,1048.25,0.8421052631578947,1.0,0.8421052631578947,0.08333333333333333,0.125,0.9324689102056171,1013.1952381134033,962.6000001430511,1160.4190476054237,1136.4000000953674,1.0,1.0,1.0,0.0,0.125,0.8999556160030084,852.2571428503309,725.7999999523163,1222.4428571292333,1181.0999999046326,0.875,1.0,0.875,0.041666666666666664,0.2916666666666667,0.9207693122237424,640.3055555820465,502.09999990463257,1334.8999999894036,1378.0499999523163,1.0,0.9473684210526315,0.9473684210526315,0.041666666666666664,0.16666666666666666,0.62898464465811
Lhv9P8ZrkDSIB7BGwooAqfu8SGF3,15.69384058240962,0.5838953994476793,0.0,0.0,0.0,0.0,490.3258333325328,378.0,284.9100000023842,326.15000000596046,0.0,1.0,1.0,0.0,118,1000.5565217344657,964.1999999880792,744.7782608685286,730.5,0.9583333333333334,1.0,0.9583333333333334,0.0,0.0,0.9840894989496005,858.3086956532105,859.6000000238419,679.2260869560034,640.0999999642372,0.9583333333333334,1.0,0.9583333333333334,0.0,0.0,0.9382677976061501,748.2458333248893,700.8000000119209,720.625,645.8000000119209,1.0,1.0,1.0,0.0,0.0,0.9592063565696466,474.7250000014901,458.15000000596046,650.9124999890724,648.3499999940395,1.0,1.0,1.0,0.0,0.0,0.7572110611872263,451.40416667113703,450.4499999880791,696.3083333298564,629.7000000178814,1.0,1.0,1.0,0.0,0.0,0.6943928011793122
LliUMEIsrCVZ88YFQfevan2Og4z1,-244.75019379844957,0.3568119212832993,0.0,0.0,0.0,0.0,343.52250000000834,196.05000000001746,93.96999999999534,126.75000000005821,0.13333333333333333,0.8958333333333334,1.0,0.10416666666666663,111,979.2130434782366,889.2999999999302,829.586956521729,778.1000000000931,1.0,0.9583333333333334,0.9583333333333334,0.0,0.0,0.796537580902886,843.7050000000279,766.1500000000815,808.0249999999826,764.6500000000815,1.0,0.8333333333333334,0.8333333333333334,0.0,0.0,0.769249988881521,751.1476190476401,639.7999999998137,825.2666666666379,744.0,1.0,0.875,0.875,0.0,0.0,0.6295869408879429,679.9434782608827,550.8999999999069,910.299999999996,858.5,1.0,0.9583333333333334,0.9583333333333334,0.0,0.0,0.6256739214229381,537.1708333333372,526.2500000001164,1064.3083333333198,1100.2499999999418,1.0,1.0,1.0,0.0,0.0,0.27070442338948053
M4Km1Q2P2oPliChDQkwl6k20FUI3,-105.2881340095098,0.6178663198634101,0.008333333333333333,0.0,0.008333333333333333,0.016666666666666666,461.0521367431706,381.80000019073486,226.33999996185304,291.5,0.02564102564102564,1.0,0.9583333333333334,-0.04166666666666663,116,1202.66250004371,1205.0500001907349,910.7458332975706,937.6999998092651,1.0,1.0,1.0,0.0,0.0,0.8351963101654359,1097.8416666785877,959.3999998569489,915.2083333333334,824.9000000953674,1.0,1.0,1.0,0.0,0.0,0.9202058517401239,844.5374999245008,773.7999999523163,836.5499999920527,733.6500000953674,1.0,1.0,1.0,0.0,0.0,0.9414373026344419,611.9904761541458,541.0999999046326,813.5333333015442,749.5,1.0,1.0,1.0,0.08333333333333333,0.041666666666666664,0.8814540651472044,632.1782607824906,603.8999996185303,1018.2652173249618,887.5,1.0,0.9583333333333334,0.9583333333333334,0.0,0.0,0.42490458129417524
O61Eik2zvrSQLMNpFbTNEgjWwMr2,367.7868181812155,0.7860493332869817,0.008333333333333333,0.0,0.0,0.008333333333333333,555.4949579831199,456.6000000014901,252.46000000014902,340.5999999996566,0.0,0.9166666666666666,1.0,0.08333333333333337,103,1632.423809523916,1694.300000000745,1311.9428571427152,1243.5999999977648,0.9166666666666666,0.9166666666666666,0.875,0.0,0.0,0.8744408348014837,1495.3631578948546,1421.5999999977648,1279.8631578942664,1260.300000000745,0.875,0.9166666666666666,0.7916666666666666,0.0,0.0,0.9363701826178982,1347.2999999995598,1266.75,1175.1272727267985,1115.6499999985099,1.0,0.9166666666666666,0.9166666666666666,0.0,0.0,0.8103132735557554,966.8684210524356,877.0,1111.4526315790258,1102.0999999977648,0.8695652173913043,0.9565217391304348,0.8260869565217391,0.0,0.041666666666666664,0.7573533364282042,689.0954545456916,676.8499999996275,928.9181818184866,922.4500000011176,0.9166666666666666,1.0,0.9166666666666666,0.0,0.0,0.4129964203653803
OExlWyngGfPrScDYjaRcv5PIAet1,72.85869565735698,0.7857108584964976,0.0,0.0,0.0,0.0,553.7949999908607,463.25,263.4599999189377,325.40000000596046,0.0,0.9583333333333334,1.0,0.04166666666666663,115,1257.6958333452542,1186.0,937.5041666775942,847.3999999761581,1.0,1.0,1.0,0.0,0.0,0.9504433868067986,1186.8545454307036,1005.0999999642373,921.681818198074,767.9499999880791,0.9583333333333334,0.9166666666666666,0.9166666666666666,0.0,0.0,0.9165669374416436,1107.3086956376615,958.3000000715256,956.9826086759567,761.6000000238419,0.9583333333333334,1.0,0.9583333333333334,0.0,0.0,0.9189436175044586,891.0999999979268,774.5,1001.4913043613019,894.6000000238419,1.0,0.9583333333333334,0.9583333333333334,0.0,0.0,0.9249722967154335,556.813043464785,453.4000000953674,857.078260877858,833.9000000953674,1.0,1.0,1.0,0.0,0.0,0.31604221819047174
ORvIk1xRWIQmKuLVe6GXNouvAXx2,134.81428570974435,0.8051025608557747,0.0,0.008333333333333333,0.0,0.0,585.938655460582,478.0,243.26000001430512,306.6000000834465,0.0,0.9148936170212766,0.9166666666666666,0.0017730496453900457,107,1310.5190476179123,1114.7000000476835,969.7428571383158,900.899999976158,1.0,0.9130434782608695,0.9130434782608695,0.041666666666666664,0.0,0.9266234077953592,1029.7952380975087,846.9000000953674,828.4952380997794,743.6000000238419,0.9583333333333334,0.9166666666666666,0.875,0.0,0.0,0.9231234131692657,1097.0826087049816,866.2000000476837,888.7521739006042,742.7999999523163,0.9583333333333334,1.0,0.9583333333333334,0.0,0.0,0.8288926934430672,777.8904761984235,548.1999999284744,910.3809523809524,757.6999999284744,0.9166666666666666,0.9583333333333334,0.875,0.0,0.0,0.9567041449620353,573.6952380793435,522.5,764.3047619093032,695.3999999761581,0.9583333333333334,0.9166666666666666,0.875,0.0,0.0,0.49868616176899283
P8mTl71XaYNvFMTCvlKpzzUdc9W2,72.7175889337957,0.7096713868925003,0.008333333333333333,0.0,0.008333333333333333,0.016666666666666666,437.4033898296998,323.85000002387096,239.87000002861024,270.04999999701977,0.0,0.9791666666666666,1.0,0.02083333333333337,115,1506.7565217406852,1442.899999976158,1265.8782608664553,1162.600000023842,0.9583333333333334,1.0,0.9583333333333334,0.0,0.0,0.9781063530621572,1345.678260870602,1331.399999976158,1202.2478260942128,1167.300000011921,0.9583333333333334,0.9583333333333334,0.9583333333333334,0.0,0.0,0.9642452940262456,1249.1434782665708,1149.0999999642372,1213.4347826112871,1170.5,1.0,1.0,1.0,0.0,0.041666666666666664,0.896226327211797,1115.0750000004966,975.5999999940395,1328.6500000059605,1233.0,1.0,1.0,1.0,0.0,0.0,0.7751855497728946,650.822727273811,590.7499999701977,1161.3454545465383,1124.3499999940395,0.9565217391304348,1.0,0.9565217391304348,0.041666666666666664,0.0,0.7592740968190188
P9bS6GGJcIXivbMWo4ibJ5jgUPG2,-122.2147368393446,0.7119374139510676,0.0,0.008333333333333333,0.0,0.0,557.7932203361534,495.15000000596046,140.22000001072885,348.5250000209053,0.07627118644067797,0.9130434782608695,0.9166666666666666,0.0036231884057971175,96,1716.029999998212,1655.0,1396.4049999952317,1274.1500000357628,0.9166666666666666,0.875,0.875,0.0,0.0,0.8797913272846273,1686.5055555568802,1725.0,1319.7722222308319,1279.9000000059605,0.8636363636363636,0.9545454545454546,0.8181818181818182,0.08333333333333333,0.0,0.8214157836793848,1987.8222222228844,1915.8000000417233,1735.2777777744664,1614.8499999940395,0.8333333333333334,0.9583333333333334,0.7916666666666666,0.0,0.0,0.8571403826118782,1262.8200000017882,1249.100000023842,1321.5650000065566,1358.949999988079,0.9166666666666666,0.875,0.8333333333333334,0.0,0.0,0.8718821974144575,1037.7449999958276,904.6999999880791,1482.3199999988078,1432.050000011921,0.9583333333333334,0.9166666666666666,0.875,0.0,0.0,0.7694121998233349
PLreonkqaMeFc0UqxKUelH44UQu1,-137.10602766770148,0.39201771294912185,0.0,0.0,0.0,0.0,505.11416666731435,410.7000000029511,223.39000000804663,291.3999999984662,0.0,0.9791666666666666,0.9583333333333334,-0.02083333333333326,113,1093.5217391323783,1018.0,766.4391304358193,711.0,0.9583333333333334,1.0,0.9583333333333334,0.0,0.0,0.6559755912572599,1003.1047619049039,1011.5999999940396,759.047619047619,769.3999999910593,0.875,0.9583333333333334,0.875,0.0,0.0,0.5985344680804778,880.4624999991307,816.1000000014901,799.9583333314707,721.1999999955297,1.0,1.0,1.0,0.0,0.0,0.7608792849447186,654.25,628.5000000074506,840.8636363616043,803.75,0.9583333333333334,0.9583333333333334,0.9166666666666666,0.0,0.0,0.8007105181412477,504.7869565240715,467.0,900.017391304607,770.9000000059605,1.0,0.9583333333333334,0.9583333333333334,0.0,0.0,0.8502924997736836
PkpTH7pWpEOG9A86xSloOSozwTk2,-138.70952815087617,0.7033786355264263,0.0,0.0,0.0,0.0,757.8689075477985,713.2999999523163,447.36000003814695,524.6000000238419,0.0,1.0,0.9583333333333334,-0.04166666666666663,115,1840.1999999854875,1679.5,1231.8565217619357,1172.6000001430511,0.9583333333333334,1.0,0.9583333333333334,0.0,0.0,0.8880004499340388,1563.0208333333333,1548.0,1100.0250000258286,1123.7999999523165,1.0,1.0,1.0,0.0,0.0,0.859922691081817,1728.860869542412,1706.7999999523165,1301.2217391573865,1351.2000000476835,1.0,0.9583333333333334,0.9583333333333334,0.0,0.0,0.8386459116441352,1323.9363636103544,1199.2999999523163,1220.677272753282,1267.1000000238419,1.0,0.9565217391304348,0.9565217391304348,0.041666666666666664,0.0,0.8053099974458702,1122.8260869150577,981.0999999046326,1303.2478260475657,1213.2000000476835,1.0,0.9583333333333334,0.9583333333333334,0.0,0.0,0.8941840803295409
QG6VXg7od2fHJ1SF9ZzYBqUa1FY2,186.05189393926412,0.8117965283035189,0.0,0.0,0.0,0.0,527.9008333331662,435.25,191.83000000044703,303.1500000022352,0.0,1.0,1.0,0.0,115,1151.0000000003386,1088.5,901.1636363640428,755.9499999992549,0.9166666666666666,1.0,0.9166666666666666,0.0,0.0,0.8702968699893354,1072.1818181813103,1001.0000000018626,892.9318181816489,893.75,0.9166666666666666,1.0,0.9166666666666666,0.0,0.0,0.8825792155945876,1074.0695652169702,970.0,964.6086956521739,884.1999999992549,1.0,0.9583333333333334,0.9583333333333334,0.0,0.0,0.9092349439259381,707.3916666664494,594.8999999985099,826.4124999997827,672.5999999996275,1.0,1.0,1.0,0.0,0.0,0.9330940202787137,480.65416666679084,434.15000000037253,710.9958333335817,686.0500000007451,1.0,1.0,1.0,0.0,0.0,0.646290454915788
QbOEVCaZLUMOgltUdXm58oZOALv2,-507.75726950369415,0.21760754130834042,0.0,0.0,0.0,0.0,405.7250000004967,352.15000000596046,231.86000003218652,283.8749999701977,0.0,1.0,1.0,0.0,117,1176.6958333353202,1158.0,866.9541666731238,795.9499999880791,1.0,1.0,1.0,0.0,0.0,0.9124893721218349,1152.7478260864382,1151.5,971.1652173944142,964.5999999642372,0.9583333333333334,1.0,0.9583333333333334,0.0,0.0,0.9160504225010939,1113.0181818198073,1030.5,1052.9999999945815,1004.2000000178814,0.9583333333333334,0.9583333333333334,0.9166666666666666,0.0,0.0,0.7559767514462014,873.1208333397905,743.5,1167.4749999940395,1088.0499999821186,1.0,1.0,1.0,0.0,0.0,0.9211492458456295,747.1208333298564,701.0499999821186,1425.7083333383005,1494.4000000059605,1.0,1.0,1.0,0.0,0.0,0.5386057219545457
Qg9GDwQ9hBNkDLt50CNLd4NqRlX2,-339.5535353703933,0.633319831027407,0.0,0.008333333333333333,0.016666666666666666,0.0,409.52564103989545,384.10000014293473,265.6199999332428,325.40000009548385,0.0,1.0,1.0,0.0,113,2027.9590909155932,2000.7999999523163,1718.236363627694,1651.4499999284744,0.9565217391304348,1.0,0.9565217391304348,0.041666666666666664,0.0,0.9883994075522557,1866.921739122142,1808.5,1628.0782608363938,1554.6000001430511,0.9583333333333334,1.0,0.9583333333333334,0.0,0.0,0.9433257558422629,1557.6454545584593,1479.4499999284744,1466.6136363853109,1373.6000000238419,0.9583333333333334,0.9583333333333334,0.9166666666666666,0.0,0.0,0.9570373821729333,1475.766666630904,1482.3499999046326,1731.1916666924953,1719.8999999761581,1.0,1.0,1.0,0.0,0.0,0.969633700719726,1309.9727272770622,1243.6000000238419,2011.709090904756,1922.8999999761581,1.0,1.0,1.0,0.08333333333333333,0.0,0.8737845027646626
QreA2rLiUhV3YHeMfuHMPdGbpJ53,-30.825667873630664,0.6516465935003851,0.0,0.0,0.008333333333333333,0.0,659.6436974781922,557.7000000478001,352.33999996185304,452.89999997615814,0.0,0.9375,0.9130434782608695,-0.024456521739130488,107,1324.6523809319451,1299.7000000476835,876.2380952608017,742.7999999523163,0.875,0.9583333333333334,0.875,0.0,0.0,0.884777473895599,1179.2649999856949,1043.8500000238419,761.6099999666214,768.6999999284744,0.9166666666666666,0.9166666666666666,0.8333333333333334,0.0,0.0,0.5412256747059146,1210.3086956376615,1159.6000001430511,978.460869550705,1003.6000001430511,1.0,0.9583333333333334,0.9583333333333334,0.0,0.0,0.8937506189521209,760.9363636537032,635.0000001192093,786.427272699096,676.5999999046326,0.9583333333333334,0.9583333333333334,0.9166666666666666,0.0,0.0,0.942660512830659,613.6285714081356,627.6999998092651,851.1476190884908,753.9000000953674,1.0,0.9130434782608695,0.9130434782608695,0.041666666666666664,0.0,0.45375769740492733
Rc706mP0TSeIoIpMYH1SpRXjOxA2,41.533333373792175,0.7180554912154729,0.0,0.0,0.0,0.0,580.1708334207981,459.4500002863351,369.9000001909677,409.1750001909677,0.0,0.9791666666666666,1.0,0.02083333333333337,115,1300.8826086624808,1302.5999994277954,932.3260869979858,985.3000001907347,1.0,0.9583333333333334,0.9583333333333334,0.0,0.0,0.9642545732551782,1398.9428571065266,1361.0,1095.4904760633196,1003.5,0.875,1.0,0.875,0.0,0.0,0.9260909025090451,1152.587500055631,1019.9499998092653,1002.9499999682108,834.4000000953674,1.0,1.0,1.0,0.0,0.0,0.9783840214129113,992.8347825589387,880.1000003814697,1106.1565216313238,938.5,0.9583333333333334,1.0,0.9583333333333334,0.0,0.0,0.9610650690674735,665.308333436648,563.4500002861023,968.6666665871938,936.25,1.0,1.0,1.0,0.0,0.0,0.38413753076720164
Rmd4rr2vGjOoLvdfYd4EdYyxK3m1,211.93749998013175,0.751620323535875,0.0,0.0,0.0,0.0,484.36166666348777,323.25,92.07999989986419,119.74999994039536,0.13333333333333333,1.0,1.0,0.0,120,1340.5125000079472,1155.8999999761581,1161.1791666547458,1035.3999999761581,1.0,1.0,1.0,0.0,0.0,0.9114677954422697,1164.6000000039737,1006.9499999284745,1028.2208333214123,1012.3000000715256,1.0,1.0,1.0,0.0,0.0,0.5284188559616888,1035.6458333730698,930.6000000238419,1086.4833333293598,993.7500001192092,1.0,1.0,1.0,0.0,0.0,0.8918302005889573,861.183333337307,684.3999999761581,992.6458333432674,812.8000000715256,1.0,1.0,1.0,0.0,0.0,0.7363129033651553,792.8166666726271,660.1500000953674,882.7625000079473,802.8999999761581,1.0,1.0,1.0,0.0,0.0,0.565284486178881
Ru3Qf6pXZua1DfNkQdhbor6iJ403,-64.81764184397412,0.6675701682258797,0.0,0.0,0.0,0.0,722.1625000000039,618.2500000001164,363.2899999998277,471.0250000000524,0.008333333333333333,0.9791666666666666,1.0,0.02083333333333337,119,1406.9173913044076,1239.3999999999069,878.895652173907,826.0,1.0,0.9583333333333334,0.9583333333333334,0.0,0.0,0.7647715606118992,1225.3624999999884,1192.25,831.8124999999515,736.7999999998137,1.0,1.0,1.0,0.0,0.0,0.6380894194456749,1303.929166666688,1136.4500000000698,1033.937499999971,846.7500000001164,1.0,1.0,1.0,0.0,0.0,0.9232603285215327,886.3374999999942,912.5499999999302,834.4541666666919,843.9500000000698,1.0,1.0,1.0,0.0,0.0,0.6536344352636196,870.8208333333023,834.9999999998836,919.6708333333081,789.9499999999534,1.0,1.0,1.0,0.0,0.0,0.7159747359943549
SOhR7IO689NQCPQu56SjATO8FR92,-343.6047619048595,0.6439747513614946,0.0,0.008333333333333333,0.016666666666666666,0.016666666666666666,477.5817391303975,437.6000000005588,282.71999999973923,345.5,0.0,0.9777777777777777,0.9565217391304348,-0.021256038647342934,109,1768.5363636364398,1876.0500000002794,1411.3045454547232,1360.2999999998137,0.9583333333333334,0.9583333333333334,0.9166666666666666,0.0,0.0,0.8926750242787564,1570.9399999999907,1572.25,1336.8049999999348,1421.9500000001863,0.9523809523809523,1.0,0.9523809523809523,0.125,0.0,0.9287052047057303,1586.9124999998992,1449.4500000001863,1373.2541666665347,1249.399999999907,1.0,1.0,1.0,0.0,0.0,0.8632432212740034,1249.8499999999237,1154.2999999998137,1394.1863636363466,1287.649999999907,1.0,0.9565217391304348,0.9565217391304348,0.041666666666666664,0.0,0.96083741988146,991.8952380951848,880.2000000001863,1719.433333333493,1537.5,0.9565217391304348,0.9565217391304348,0.9130434782608695,0.041666666666666664,0.0,0.9614452389194572
SPCT9D90pRa1ihXS5jEw6vCmquI3,208.23003952370095,0.5111619812594926,0.0,0.0,0.0,0.0,571.8470588228837,495.9000000060187,95.34000000953675,247.90000000596046,0.11764705882352941,0.9791666666666666,0.9583333333333334,-0.02083333333333326,111,1049.0999999953353,1038.0999999940395,840.0521739151167,728.6999999880791,0.9583333333333334,1.0,0.9583333333333334,0.0,0.0,0.7035860495529256,1129.139130430377,1049.199999988079,809.3260869526345,703.5,1.0,0.9583333333333334,0.9583333333333334,0.0,0.0,0.24424837294770488,851.1090909120711,770.2000000029802,688.5545454512943,639.5499999821186,1.0,0.9565217391304348,0.9565217391304348,0.041666666666666664,0.0,0.5403161640187898,485.77619046966237,483.6999999880791,629.1523809518133,644.8999999761581,0.9583333333333334,0.9166666666666666,0.875,0.0,0.0,0.5741890850561873,493.3727272735401,467.70000000298023,616.4590909101746,562.0499999970198,0.9583333333333334,0.9583333333333334,0.9166666666666666,0.0,0.0,0.21959760980977003
SpSfX0ZcfcPLdlOENlfdfvEPwru2,177.34782608695627,0.7083034318129299,0.0,0.0,0.0,0.0,569.6333333333329,483.5,325.8,361.0000000000218,0.0,0.9791666666666666,0.9583333333333334,-0.02083333333333326,113,1349.8695652173838,1340.0,998.6956521739162,931.0000000000582,1.0,0.9583333333333334,0.9583333333333334,0.0,0.0,0.9379712752188863,1281.9999999999986,1171.0,1031.6521739130446,977.0,0.9583333333333334,1.0,0.9583333333333334,0.0,0.0,0.9363586989392501,1106.4347826086994,1023.0,890.7826086956541,833.9999999999418,0.9583333333333334,0.9583333333333334,0.9583333333333334,0.0,0.0,0.771478629401274,793.0952380952353,685.0000000000582,931.9999999999951,792.0,0.875,0.9583333333333334,0.875,0.0,0.0,0.92126025721101,515.0869565217404,480.9999999999418,837.8260869565243,801.0,0.9583333333333334,0.9583333333333334,0.9583333333333334,0.0,0.0,0.22863921079657568
SvtOrPatsnWjicxtyndEzSdO5Wp1,4.108712115071057,0.7972538881734618,0.0,0.0,0.0,0.0,537.9708333303531,369.0500000715256,286.33999997377396,307.94999998807907,0.0,0.9583333333333334,1.0,0.04166666666666663,115,1167.1954545487058,1100.7500000596046,922.2772727283565,823.8000000119209,0.9583333333333334,0.9583333333333334,0.9166666666666666,0.0,0.0,0.9823330083178106,1059.336363619024,902.1500000357628,899.6818181763996,717.1999999880791,0.9583333333333334,0.9583333333333334,0.9166666666666666,0.0,0.0,0.982908769517153,986.8416666736206,969.9500000476837,956.8458333313465,943.850000023842,1.0,1.0,1.0,0.0,0.0,0.8574979555384673,998.0521739254827,634.7000000476837,1051.617391316787,814.6999999284744,0.9583333333333334,1.0,0.9583333333333334,0.0,0.0,0.8653814742416647,693.5458333293597,614.1000000238419,906.870833337307,809.6000000238419,1.0,1.0,1.0,0.0,0.0,0.6080650591722302
ToTCRJ4EX9OL6UlJqmDkaEbggWF2,-86.3334299547372,0.7281954050705679,0.0,0.0,0.0,0.0,602.2588235310283,493.10000002384186,247.6800000132993,331.9500000181142,0.0,1.0,1.0,0.0,114,1496.7318181815472,1356.1500000059605,1116.990909087387,1033.199999988079,0.9166666666666666,1.0,0.9166666666666666,0.0,0.0,0.8961048541615065,1261.2826086943564,1181.4000000059605,920.1086956495824,734.2999999821186,0.9583333333333334,1.0,0.9583333333333334,0.0,0.0,0.5772635390043093,1322.9173913040886,1337.2999999821186,1184.7956521744313,1035.9000000059605,1.0,1.0,1.0,0.041666666666666664,0.0,0.9259427225561938,1019.4826086928015,811.0,1070.1391304342644,813.0,1.0,0.9583333333333334,0.9583333333333334,0.0,0.0,0.8781585638175655,882.0565217422402,732.7000000178814,1102.695652173913,1013.8000000119208,1.0,1.0,1.0,0.0,0.0,0.7998330070566249
UK6MLdHbCaS4xIz2f3vGdpkbBzG3,-86.73170290180087,0.47953201015603564,0.0,0.0,0.0,0.0,319.90583333397615,222.45000000298023,92.37000000753906,124.47500000154832,0.125,0.9583333333333334,1.0,0.04166666666666663,118,836.6208333348235,771.5500000119209,738.8041666659216,698.0500000119209,1.0,1.0,1.0,0.0,0.0,0.9502153524565777,754.2454545470802,720.6000000089407,720.6863636360927,694.1499999910593,1.0,0.9166666666666666,0.9166666666666666,0.0,0.0,0.8993679046642081,593.5249999985099,565.8999999910593,734.2916666703919,731.5500000119209,1.0,1.0,1.0,0.0,0.0,0.8988255958772453,519.3874999967715,453.69999998807907,871.0624999950329,791.5999999940395,1.0,1.0,1.0,0.0,0.0,0.9049803011546651,404.6333333315949,363.25,816.8708333360652,698.7000000029802,1.0,1.0,1.0,0.0,0.0,0.6440923531697669
Ub7nV8F55kPruh35ZpUcKoBUyn63,71.3630434767058,0.7706056076817596,0.008333333333333333,0.0,0.008333333333333333,0.008333333333333333,730.3796610190747,716.25,416.2700000167708,526.4500000179687,0.0,0.9583333333333334,1.0,0.04166666666666663,115,1715.5090909071944,1622.699999988079,1144.631818182089,1111.4000000059605,1.0,0.9166666666666666,0.9166666666666666,0.0,0.0,0.8523486986249325,1676.5833333333333,1579.3999999910593,1197.6083333306015,1101.7999999970198,1.0,1.0,1.0,0.0,0.0,0.9209586848972766,1611.9045454507525,1591.0499999970198,1295.913636360656,1260.449999988079,1.0,0.9565217391304348,0.9565217391304348,0.0,0.041666666666666664,0.890310371367429,1336.933333337307,1241.25,1191.070833331595,848.1999999880791,1.0,1.0,1.0,0.0,0.0,0.9441355215622368,887.3565217424994,845.4000000059605,1100.9086956524332,1058.300000011921,1.0,1.0,1.0,0.041666666666666664,0.0,0.6693399354030812
UbqFccqQZZgcqJIqCn3ErH9zQdM2,144.3033597002859,0.7618735275072974,0.0,0.0,0.0,0.0,416.344999991854,269.44999998807907,157.14999996423722,217.4249999821186,0.016666666666666666,0.9583333333333334,1.0,0.04166666666666663,112,1044.6217391179955,842.8000000715256,848.2652173923409,770.6000000238419,1.0,0.9583333333333334,0.9583333333333334,0.0,0.0,0.8515985527972353,891.9521739120069,758.7999999523163,827.9869565341784,696.2999999523163,1.0,0.9583333333333334,0.9583333333333334,0.0,0.0,0.9697114239786117,537.7863636341962,504.19999998807907,606.3318181796508,595.1500000357628,1.0,0.9166666666666666,0.9166666666666666,0.0,0.0,0.9149565903273704,538.8499999859116,484.75,757.9681818105958,715.1999999880791,1.0,0.9166666666666666,0.9166666666666666,0.0,0.0,0.8488076085828351,387.3590909080072,360.9499999284744,693.8227272629738,610.0999999642372,0.9166666666666666,1.0,0.9166666666666666,0.0,0.0,0.15901591610105384
UbwuSMtBsHdW3Ji41opk3GInMqi2,-72.29362318851952,0.7063256255333465,0.0,0.0,0.0,0.0,572.0816666668271,413.850000000617,258.89000000031666,306.6250000009604,0.0,0.9791666666666666,0.9583333333333334,-0.02083333333333326,116,972.8956521739779,916.5,689.5434782607886,655.0999999996275,1.0,0.9583333333333334,0.9583333333333334,0.0,0.0,0.9590344322167182,1053.7636363635008,870.4500000011176,814.4181818182326,644.7999999998137,0.9166666666666666,1.0,0.9166666666666666,0.0,0.0,0.8511509422345122,963.5541666667754,725.3500000005588,794.2958333333954,699.25,1.0,1.0,1.0,0.0,0.0,0.6968461129134195,702.5249999999845,584.0999999996275,775.1541666664804,653.7999999998137,1.0,1.0,1.0,0.0,0.0,0.9079137377600265,625.126086956538,566.8000000007451,822.8869565218363,710.9000000003725,1.0,0.9583333333333334,0.9583333333333334,0.0,0.0,0.8680884664279593
UmgPh1pF5GgcJ0YH7ANm2c0UQOP2,2.2113082086432314,0.6350742535882953,0.025,0.016666666666666666,0.016666666666666666,0.041666666666666664,600.7168141529623,535.5,387.86000006198884,430.59999990463257,0.0,1.0,0.9583333333333334,-0.04166666666666663,106,1499.5571428707667,1465.2999999523165,1067.2571428560075,1015.899999976158,1.0,1.0,1.0,0.08333333333333333,0.041666666666666664,0.7453832025294511,1553.3150000035762,1369.3499999642372,1239.2700000107288,1037.1500000357628,0.9090909090909091,1.0,0.9090909090909091,0.0,0.08333333333333333,0.9711993736738103,1357.4636363549666,1278.6999999880793,1122.31363637339,1042.3999999761581,1.0,1.0,1.0,0.08333333333333333,0.0,0.8577027846137739,1165.6476190487544,968.8000000715256,1239.8095238152005,1207.399999976158,0.875,1.0,0.875,0.0,0.0,0.8845622120143648,690.031818178567,623.75,1148.9545454545455,995.5499999523163,0.9583333333333334,0.9583333333333334,0.9166666666666666,0.0,0.0,0.7083736190524625
VwTymW8T68MfpnJvZ2X97ILqDWS2,-450.71879698441444,0.6645454589457461,0.16666666666666666,0.0,0.03333333333333333,0.16666666666666666,101.53229166878009,73.44999998807907,27.80000001192093,43.82500000298023,0.7604166666666666,0.8974358974358975,1.0,0.10256410256410253,92,1592.0705882310867,1300.100000023842,1538.4647058879627,1252.800000011921,1.0,0.85,0.85,0.0,0.16666666666666666,0.9817912637945921,1477.711111108462,1517.9499999880793,1538.2000000079472,1378.9000000059605,1.0,0.9473684210526315,0.9473684210526315,0.0,0.20833333333333334,0.9744840070546468,1418.325,1265.6500000059605,1619.6749999910594,1501.8499999940395,1.0,1.0,1.0,0.0,0.16666666666666666,0.9684555396765224,1108.3055555654896,1013.1000000238419,1638.4888888961739,1530.449999988079,1.0,1.0,1.0,0.125,0.125,0.990547264249074,872.2999999868242,762.0,1989.0473684197977,1889.0,1.0,1.0,1.0,0.041666666666666664,0.16666666666666666,0.9351960792171873
WKzqsLX1lNVSdbGgYTTVGtFwsrF3,-5.053654024050502,0.7186055303773504,0.0,0.0,0.0,0.0,671.7333333333329,591.0000000000291,362.40000000000583,469.7500000000291,0.0,1.0,1.0,0.0,117,1530.0434782608772,1494.0,1072.3478260869438,1046.0,0.9583333333333334,1.0,0.9583333333333334,0.0,0.0,0.918761832636885,1513.6250000000073,1532.500000000029,1150.9166666666667,1107.0,1.0,1.0,1.0,0.0,0.0,0.9494589711409057,1513.2500000000025,1565.5,1231.375,1135.0,1.0,1.0,1.0,0.0,0.0,0.8977876207449187,1104.304347826082,962.0,1007.0434782608696,1024.0,0.9583333333333334,1.0,0.9583333333333334,0.0,0.0,0.843468716105898,873.0,801.9999999999418,1117.5217391304272,986.0000000000582,0.9583333333333334,1.0,0.9583333333333334,0.0,0.0,0.5420772844614702
WbOfW9KmUkPQK8o5hlHJnJFdpp92,-29.482815733715483,0.5781823802471674,0.0,0.0,0.008333333333333333,0.008333333333333333,544.6386554626808,393.3999999910593,230.83999999472871,304.65000000596046,0.008403361344537815,0.9583333333333334,0.9565217391304348,-0.0018115942028985588,113,797.9545454511589,738.4499999955297,553.3181818161498,518.8999999985099,1.0,0.9166666666666666,0.9166666666666666,0.0,0.0,0.5493291118830753,695.6083333324641,663.9500000029802,566.4500000004967,526.5499999970198,1.0,1.0,1.0,0.0,0.0,0.841314792859422,633.1826086970775,619.0,591.0782608720272,593.8000000119209,0.9583333333333334,1.0,0.9583333333333334,0.0,0.0,0.9018693631495793,575.2608695639217,513.8000000119209,581.4782608702131,536.2000000029802,1.0,0.9583333333333334,0.9583333333333334,0.0,0.0,0.7577424902750752,440.32857142814566,423.79999999701977,589.6523809503941,565.0,0.9565217391304348,0.9565217391304348,0.9130434782608695,0.041666666666666664,0.0,0.41121183074176326
WcTsIpSoEhYeIBSNjAbbdaNSBya2,-67.79226190650036,0.6669555107159033,0.0,0.0,0.0,0.0,586.3233333333085,476.4999999999709,323.4300000026822,373.85000000150467,0.0,0.9791666666666666,1.0,0.02083333333333337,110,1189.7619047633239,1159.7999999970198,880.0619047603437,845.3999999910593,0.9166666666666666,1.0,0.9166666666666666,0.0,0.0,0.9730249707793645,1140.371428570577,1080.7999999970198,879.4285714271523,764.7000000029802,0.9166666666666666,0.9583333333333334,0.875,0.0,0.0,0.9681423911431786,1147.4999999987583,943.7000000029802,947.1291666664183,811.0000000074506,1.0,1.0,1.0,0.0,0.0,0.8143777583263281,915.4199999995529,741.9500000029802,990.7100000008941,855.8500000014901,0.9583333333333334,0.875,0.8333333333333334,0.0,0.0,0.8044950114792842,593.6583333319674,541.4499999955297,947.5375000002483,942.7000000029802,1.0,1.0,1.0,0.0,0.0,0.6402694267754474
WeHQDy9BWldTlaQDVVlsJNCqwxA2,101.05731225296938,0.692763426758501,0.0,0.0,0.0,0.0,611.6333333333382,538.0,343.70000000000584,453.0,0.0,0.9583333333333334,0.9583333333333334,0.0,113,1365.857142857154,1304.0,923.761904761902,847.9999999999418,0.9166666666666666,0.9583333333333334,0.875,0.0,0.0,0.9218303998419657,1287.0434782608645,1216.0,943.9565217391279,883.0,1.0,0.9583333333333334,0.9583333333333334,0.0,0.0,0.8415156917140425,1138.5909090909065,1091.5,936.1818181818181,842.0,0.9583333333333334,0.9583333333333334,0.9166666666666666,0.0,0.0,0.9306400075524107,807.9166666666691,799.5,867.4166666666666,810.5,1.0,1.0,1.0,0.0,0.0,0.7871338467222054,566.0434782608721,541.0,833.2608695652098,815.0,1.0,0.9583333333333334,0.9583333333333334,0.0,0.0,0.6178906403876836
Wfo71fsX1VVfPZnzhT7HEYBTwnq1,79.23124996821082,0.7105129773643538,0.0,0.0,0.0,0.0,566.0591666975796,505.20000004733447,343.2900000572205,406.1499999759835,0.0,1.0,1.0,0.0,120,1195.4041666785877,1182.4500002861023,858.4791666467985,824.1999998092651,1.0,1.0,1.0,0.0,0.0,0.884260169557131,1182.6041666865349,1209.2999999523163,905.7083333134651,828.0499999523163,1.0,1.0,1.0,0.0,0.0,0.907792944605789,976.0124999880791,967.4500000476838,792.9708333015442,734.0499999523163,1.0,1.0,1.0,0.0,0.0,0.9270972015553741,826.333333392938,781.8000001907349,913.5333333015442,856.1499998569489,1.0,1.0,1.0,0.0,0.0,0.968807808021365,530.304166674614,468.84999990463257,802.8625000119209,729.4000000953674,1.0,1.0,1.0,0.0,0.0,0.7468061105695734
WnC6Uscb5VMIr43GASKiUCO3AYH2,60.84131205195547,0.7592824610598338,0.0,0.0,0.0,0.0,359.0024999991059,246.1000000089407,101.39999999403953,153.72500000149012,0.1,1.0,1.0,0.0,118,1100.3521739127843,1006.2000000178814,949.9739130385544,902.9000000059604,0.9583333333333334,1.0,0.9583333333333334,0.0,0.0,0.9683773365759174,891.9374999975165,807.9499999880791,847.3749999987582,783.5499999970198,1.0,1.0,1.0,0.0,0.0,0.9140123698145128,632.6347826097323,519.2000000178814,724.556521738353,664.8000000119209,0.9583333333333334,1.0,0.9583333333333334,0.0,0.0,0.9722284605963412,609.1999999955297,517.8499999940395,895.4833333318433,840.5499999821186,1.0,1.0,1.0,0.0,0.0,0.8907702669390866,418.08749999726814,375.34999999403954,836.7416666684052,678.2999999970198,1.0,1.0,1.0,0.0,0.0,0.7754915275797669
WqoZv41KTtTCuPKBPyClregrKAi1,92.31453634088052,0.7058957384356843,0.016666666666666666,0.0,0.0,0.016666666666666666,718.1525423728823,595.5,349.40000000000003,436.5,0.0,0.9130434782608695,0.9166666666666666,0.0036231884057971175,103,1419.1666666666797,1356.5,997.000000000013,889.5,0.9090909090909091,0.9090909090909091,0.8181818181818182,0.0,0.08333333333333333,0.918068293687705,1542.1,1582.5,1009.45,974.5,0.9166666666666666,0.9166666666666666,0.8333333333333334,0.0,0.0,0.6805704089754898,1157.590909090925,1056.4999999999418,920.1363636363584,836.0000000000582,0.9166666666666666,1.0,0.9166666666666666,0.0,0.0,0.8562917761254917,1049.6818181818182,1044.5,1002.7272727272622,945.0,0.9583333333333334,0.9583333333333334,0.9166666666666666,0.0,0.0,0.8662013492288152,747.5238095238095,659.0,911.238095238073,779.0,0.9583333333333334,0.9166666666666666,0.875,0.0,0.0,0.6579977525220979
XbHvBButpZS4bapbJXJLAYcHnn12,32.8267730496641,0.6581220990256357,0.0,0.0,0.0,0.0,437.7950000000021,379.94999999995343,207.049999999837,270.0,0.0,0.9791666666666666,1.0,0.02083333333333337,119,1464.2913043478645,1488.0,1181.4695652174237,1173.7000000001865,1.0,0.9583333333333334,0.9583333333333334,0.0,0.0,0.7873304337972301,1482.8416666666938,1551.8499999999767,1291.1666666666763,1333.8000000000466,1.0,1.0,1.0,0.0,0.0,0.8759519860945082,1356.0083333333023,1419.5500000000466,1295.8875000000116,1257.7999999999302,1.0,1.0,1.0,0.0,0.0,0.9338025054861537,1083.7166666666647,1035.8499999999767,1341.3624999999786,1309.2000000000698,1.0,1.0,1.0,0.0,0.0,0.917486133431406,743.2416666666492,660.5,1204.6583333333353,1026.25,1.0,1.0,1.0,0.0,0.0,0.8825934287532696
XehZHBpwr5MYzUXkj0FAYCsFG922,-410.78396135210846,0.6174893732935595,0.0,0.0,0.016666666666666666,0.0,91.19661016964504,66.09999999776483,36.230000002565795,44.95000000298023,0.864406779661017,0.9791666666666666,1.0,0.02083333333333337,115,1461.8333333333333,1301.39999999851,1415.5428571424313,1317.39999999851,0.9166666666666666,0.9583333333333334,0.875,0.0,0.0,0.973165690813859,1352.9166666682188,1246.0000000037253,1449.6583333335195,1341.9000000022352,1.0,1.0,1.0,0.0,0.0,0.9880679398763494,1243.262499999255,1168.449999999255,1496.504166668281,1383.6000000014901,1.0,1.0,1.0,0.0,0.0,0.9975659219750405,996.9043478262813,805.5,1534.530434784034,1352.1999999955297,1.0,1.0,1.0,0.041666666666666664,0.0,0.989827342627977,754.6478260878636,643.7999999970198,1844.521739129787,1761.0,1.0,1.0,1.0,0.041666666666666664,0.0,0.7623026646185785
YEU5ox3jteVINfdSTg5ymqYcS9o2,-125.10361110965403,0.4572085310513138,0.0,0.0,0.0,0.0,304.5566666672598,238.09999996429542,49.50000002372544,63.80000002676388,0.35,0.9791666666666666,1.0,0.02083333333333337,115,978.0545454567128,897.1999999880791,862.227272729982,754.5,0.9583333333333334,0.9583333333333334,0.9166666666666666,0.0,0.0,0.9544083901907355,858.2391304347826,739.0,860.4956521780595,766.0,0.9583333333333334,1.0,0.9583333333333334,0.0,0.0,0.9315658564891479,669.886956518111,605.6999999880791,783.7739130414051,704.5999999642372,1.0,0.9583333333333334,0.9583333333333334,0.0,0.0,0.7429117326746694,531.7913043550823,457.0,887.5217391304348,826.8999999761581,0.9583333333333334,1.0,0.9583333333333334,0.0,0.0,0.8420081148580963,447.808333342274,419.05000001192093,986.4458333353201,830.5,1.0,1.0,1.0,0.0,0.0,0.06108615880616366
Yco8O7tmHlbsUBfKW2ywcZByGO32,184.6913043467896,0.8252403102210558,0.0,0.0,0.0,0.0,513.5825000005464,339.84999999403954,215.79000001251697,255.87500000745058,0.0,0.9791666666666666,0.9583333333333334,-0.02083333333333326,116,1399.7826086969478,1376.199999988079,1098.3869565194068,1001.5999999940396,0.9583333333333334,1.0,0.9583333333333334,0.0,0.0,0.9051033197962807,1211.0869565243306,1174.0999999940395,1092.8913043465304,1000.0999999940396,1.0,0.9583333333333334,0.9583333333333334,0.0,0.0,0.9802262957836312,937.6958333291113,873.2499999850988,928.0250000022352,839.9000000059605,1.0,1.0,1.0,0.0,0.0,0.9062269673461204,893.7913043473078,851.5,1055.6043478250504,923.899999976158,1.0,0.9583333333333334,0.9583333333333334,0.0,0.0,0.8770050265475121,808.5999999992225,831.9000000059605,910.947826086179,905.7999999821186,1.0,0.9583333333333334,0.9583333333333334,0.0,0.0,0.5055693517676868
