participant_id,participant_idx,trial,condition,condition_code,correct,response,rt_ms,rt_sec,text,letterColor
GE4hogtdLdTFbNasENgtm6SO3hC3,20,0,neutral,0.5,True,1,1810.199999988079,1.8101999999880791,기차,yellow
GE4hogtdLdTFbNasENgtm6SO3hC3,20,1,incongruent,1.0,True,1,1316.4000000059605,1.3164000000059604,파랑,yellow
GE4hogtdLdTFbNasENgtm6SO3hC3,20,2,incongruent,1.0,True,1,1200.699999988079,1.200699999988079,빨강,green
GE4hogtdLdTFbNasENgtm6SO3hC3,20,3,neutral,0.5,True,1,1185.5,1.1855,기차,red
GE4hogtdLdTFbNasENgtm6SO3hC3,20,4,neutral,0.5,True,1,1648.0999999940395,1.6480999999940396,기차,blue
GE4hogtdLdTFbNasENgtm6SO3hC3,20,5,congruent,0.0,True,1,1184.5,1.1845,노랑,yellow
GE4hogtdLdTFbNasENgtm6SO3hC3,20,6,incongruent,1.0,False,0,1095.5,1.0955,초록,yellow
GE4hogtdLdTFbNasENgtm6SO3hC3,20,7,neutral,0.5,True,1,1230.5999999940395,1.2305999999940396,학교,red
GE4hogtdLdTFbNasENgtm6SO3hC3,20,8,neutral,0.5,True,1,1194.5,1.1945,가방,yellow
GE4hogtdLdTFbNasENgtm6SO3hC3,20,9,congruent,0.0,True,1,1214.899999976158,1.2148999999761578,빨강,red
GE4hogtdLdTFbNasENgtm6SO3hC3,20,10,neutral,0.5,True,1,1505.100000023842,1.5051000000238421,가방,red
GE4hogtdLdTFbNasENgtm6SO3hC3,20,11,incongruent,1.0,True,1,1283.4000000059605,1.2834000000059604,파랑,red
GE4hogtdLdTFbNasENgtm6SO3hC3,20,12,congruent,0.0,True,1,1093.699999988079,1.093699999988079,노랑,yellow
GE4hogtdLdTFbNasENgtm6SO3hC3,20,13,incongruent,1.0,True,1,1538.699999988079,1.538699999988079,초록,yellow
GE4hogtdLdTFbNasENgtm6SO3hC3,20,14,neutral,0.5,True,1,1567.5999999940395,1.5675999999940395,학교,green
GE4hogtdLdTFbNasENgtm6SO3hC3,20,15,incongruent,1.0,True,1,1471.300000011921,1.471300000011921,빨강,yellow
GE4hogtdLdTFbNasENgtm6SO3hC3,20,16,incongruent,1.0,True,1,1286.2999999821186,1.2862999999821185,노랑,green
GE4hogtdLdTFbNasENgtm6SO3hC3,20,17,congruent,0.0,True,1,1017.899999976158,1.017899999976158,파랑,blue
GE4hogtdLdTFbNasENgtm6SO3hC3,20,18,incongruent,1.0,True,1,1801.6000000238416,1.8016000000238417,노랑,blue
GE4hogtdLdTFbNasENgtm6SO3hC3,20,19,congruent,0.0,True,1,921.0999999940396,0.9210999999940397,초록,green
GE4hogtdLdTFbNasENgtm6SO3hC3,20,20,neutral,0.5,True,1,2332.199999988079,2.332199999988079,가방,green
GE4hogtdLdTFbNasENgtm6SO3hC3,20,21,congruent,0.0,True,1,575.1000000238419,0.5751000000238419,초록,green
GE4hogtdLdTFbNasENgtm6SO3hC3,20,22,congruent,0.0,True,1,851.1999999880791,0.851199999988079,빨강,red
GE4hogtdLdTFbNasENgtm6SO3hC3,20,23,neutral,0.5,True,1,832.5,0.8325,기차,blue
GE4hogtdLdTFbNasENgtm6SO3hC3,20,24,congruent,0.0,True,1,1966.800000011921,1.966800000011921,노랑,yellow
GE4hogtdLdTFbNasENgtm6SO3hC3,20,25,congruent,0.0,True,1,1308.5,1.3085,파랑,blue
GE4hogtdLdTFbNasENgtm6SO3hC3,20,26,neutral,0.5,True,1,1409.199999988079,1.409199999988079,기차,yellow
GE4hogtdLdTFbNasENgtm6SO3hC3,20,27,incongruent,1.0,True,1,1379.9000000059605,1.3799000000059605,노랑,blue
GE4hogtdLdTFbNasENgtm6SO3hC3,20,28,incongruent,1.0,True,1,1638.5999999940395,1.6385999999940395,파랑,red
GE4hogtdLdTFbNasENgtm6SO3hC3,20,30,incongruent,1.0,False,0,2907.0999999940395,2.9070999999940397,노랑,red
GE4hogtdLdTFbNasENgtm6SO3hC3,20,31,incongruent,1.0,True,1,1961.2000000178812,1.961200000017881,초록,blue
GE4hogtdLdTFbNasENgtm6SO3hC3,20,32,congruent,0.0,True,1,1139.0999999940395,1.1390999999940394,노랑,yellow
GE4hogtdLdTFbNasENgtm6SO3hC3,20,33,neutral,0.5,True,1,1330.300000011921,1.330300000011921,학교,red
GE4hogtdLdTFbNasENgtm6SO3hC3,20,34,congruent,0.0,True,1,1110.699999988079,1.1106999999880791,초록,green
GE4hogtdLdTFbNasENgtm6SO3hC3,20,35,congruent,0.0,True,1,1125.300000011921,1.1253000000119209,빨강,red
GE4hogtdLdTFbNasENgtm6SO3hC3,20,36,neutral,0.5,True,1,970.4000000059604,0.9704000000059604,학교,green
GE4hogtdLdTFbNasENgtm6SO3hC3,20,37,congruent,0.0,True,1,604.4000000059605,0.6044000000059605,초록,green
GE4hogtdLdTFbNasENgtm6SO3hC3,20,38,incongruent,1.0,True,1,1851.5999999940395,1.8515999999940396,초록,blue
GE4hogtdLdTFbNasENgtm6SO3hC3,20,39,incongruent,1.0,True,1,765.0999999940395,0.7650999999940395,빨강,blue
GE4hogtdLdTFbNasENgtm6SO3hC3,20,40,incongruent,1.0,False,0,891.5,0.8915,파랑,green
GE4hogtdLdTFbNasENgtm6SO3hC3,20,41,neutral,0.5,True,1,955.3000000119208,0.9553000000119208,학교,blue
GE4hogtdLdTFbNasENgtm6SO3hC3,20,42,congruent,0.0,True,1,633.3000000119209,0.6333000000119209,파랑,blue
GE4hogtdLdTFbNasENgtm6SO3hC3,20,43,incongruent,1.0,True,1,602.6999999880791,0.6026999999880791,빨강,blue
GE4hogtdLdTFbNasENgtm6SO3hC3,20,44,incongruent,1.0,True,1,1413.5999999940395,1.4135999999940396,초록,yellow
GE4hogtdLdTFbNasENgtm6SO3hC3,20,45,congruent,0.0,True,1,1555.5999999940395,1.5555999999940395,빨강,red
GE4hogtdLdTFbNasENgtm6SO3hC3,20,46,neutral,0.5,True,1,1337.800000011921,1.337800000011921,학교,yellow
GE4hogtdLdTFbNasENgtm6SO3hC3,20,47,congruent,0.0,True,1,1130.0999999940395,1.1300999999940395,파랑,blue
GE4hogtdLdTFbNasENgtm6SO3hC3,20,48,incongruent,1.0,True,1,443.7000000178814,0.4437000000178814,빨강,blue
GE4hogtdLdTFbNasENgtm6SO3hC3,20,49,congruent,0.0,True,1,1412.5999999940395,1.4125999999940395,초록,green
GE4hogtdLdTFbNasENgtm6SO3hC3,20,50,incongruent,1.0,True,1,1095.0999999940395,1.0950999999940396,빨강,green
GE4hogtdLdTFbNasENgtm6SO3hC3,20,51,congruent,0.0,True,1,651.1000000238419,0.6511000000238418,초록,green
GE4hogtdLdTFbNasENgtm6SO3hC3,20,52,neutral,0.5,True,1,1356.800000011921,1.356800000011921,가방,red
GE4hogtdLdTFbNasENgtm6SO3hC3,20,53,neutral,0.5,True,1,1075.800000011921,1.075800000011921,학교,blue
GE4hogtdLdTFbNasENgtm6SO3hC3,20,54,neutral,0.5,True,1,1339.4000000059605,1.3394000000059605,가방,green
GE4hogtdLdTFbNasENgtm6SO3hC3,20,55,incongruent,1.0,True,1,1642.199999988079,1.642199999988079,초록,red
GE4hogtdLdTFbNasENgtm6SO3hC3,20,56,incongruent,1.0,True,1,1490.5,1.4905,파랑,yellow
GE4hogtdLdTFbNasENgtm6SO3hC3,20,57,neutral,0.5,True,1,1417.5,1.4175,가방,red
GE4hogtdLdTFbNasENgtm6SO3hC3,20,58,congruent,0.0,True,1,645.5999999940395,0.6455999999940395,빨강,red
GE4hogtdLdTFbNasENgtm6SO3hC3,20,59,neutral,0.5,True,1,1099.0,1.099,기차,green
GE4hogtdLdTFbNasENgtm6SO3hC3,20,60,neutral,0.5,True,1,1191.0,1.191,학교,blue
GE4hogtdLdTFbNasENgtm6SO3hC3,20,61,neutral,0.5,True,1,1311.9000000059605,1.3119000000059604,기차,yellow
GE4hogtdLdTFbNasENgtm6SO3hC3,20,62,neutral,0.5,True,1,1445.5,1.4455,기차,green
GE4hogtdLdTFbNasENgtm6SO3hC3,20,63,incongruent,1.0,True,1,1471.5999999940395,1.4715999999940395,빨강,yellow
GE4hogtdLdTFbNasENgtm6SO3hC3,20,64,incongruent,1.0,True,1,972.7999999821186,0.9727999999821186,파랑,yellow
GE4hogtdLdTFbNasENgtm6SO3hC3,20,65,congruent,0.0,True,1,762.7000000178814,0.7627000000178814,노랑,yellow
GE4hogtdLdTFbNasENgtm6SO3hC3,20,66,neutral,0.5,True,1,1918.5,1.9185,학교,red
GE4hogtdLdTFbNasENgtm6SO3hC3,20,67,incongruent,1.0,True,1,1477.0,1.477,빨강,yellow
GE4hogtdLdTFbNasENgtm6SO3hC3,20,68,incongruent,1.0,True,1,996.899999976158,0.9968999999761581,파랑,green
GE4hogtdLdTFbNasENgtm6SO3hC3,20,69,incongruent,1.0,True,1,952.2000000178814,0.9522000000178814,노랑,blue
GE4hogtdLdTFbNasENgtm6SO3hC3,20,70,congruent,0.0,True,1,1214.100000023842,1.214100000023842,빨강,red
GE4hogtdLdTFbNasENgtm6SO3hC3,20,71,neutral,0.5,True,1,1140.5999999940395,1.1405999999940395,가방,blue
GE4hogtdLdTFbNasENgtm6SO3hC3,20,72,congruent,0.0,True,1,821.9000000059605,0.8219000000059604,파랑,blue
GE4hogtdLdTFbNasENgtm6SO3hC3,20,73,congruent,0.0,True,1,1014.8000000119208,1.0148000000119208,노랑,yellow
GE4hogtdLdTFbNasENgtm6SO3hC3,20,74,incongruent,1.0,True,1,1327.7000000178814,1.3277000000178814,노랑,green
GE4hogtdLdTFbNasENgtm6SO3hC3,20,75,congruent,0.0,True,1,1048.9000000059605,1.0489000000059605,파랑,blue
GE4hogtdLdTFbNasENgtm6SO3hC3,20,76,incongruent,1.0,True,1,984.3000000119208,0.9843000000119209,파랑,green
GE4hogtdLdTFbNasENgtm6SO3hC3,20,77,neutral,0.5,True,1,960.4000000059604,0.9604000000059604,학교,yellow
GE4hogtdLdTFbNasENgtm6SO3hC3,20,78,neutral,0.5,True,1,1267.5,1.2675,학교,green
GE4hogtdLdTFbNasENgtm6SO3hC3,20,79,neutral,0.5,True,1,1273.7999999821186,1.2737999999821186,기차,red
GE4hogtdLdTFbNasENgtm6SO3hC3,20,80,congruent,0.0,True,1,1100.300000011921,1.100300000011921,파랑,blue
GE4hogtdLdTFbNasENgtm6SO3hC3,20,81,congruent,0.0,True,1,1919.7000000178812,1.9197000000178812,빨강,red
GE4hogtdLdTFbNasENgtm6SO3hC3,20,82,congruent,0.0,True,1,2023.5999999940395,2.0235999999940395,파랑,blue
GE4hogtdLdTFbNasENgtm6SO3hC3,20,83,neutral,0.5,True,1,917.6999999880792,0.9176999999880792,가방,blue
GE4hogtdLdTFbNasENgtm6SO3hC3,20,84,congruent,0.0,True,1,953.4000000059604,0.9534000000059604,노랑,yellow
GE4hogtdLdTFbNasENgtm6SO3hC3,20,85,incongruent,1.0,True,1,1578.0999999940395,1.5780999999940395,파랑,red
GE4hogtdLdTFbNasENgtm6SO3hC3,20,86,congruent,0.0,True,1,1777.800000011921,1.777800000011921,초록,green
GE4hogtdLdTFbNasENgtm6SO3hC3,20,87,neutral,0.5,True,1,578.5,0.5785,기차,green
GE4hogtdLdTFbNasENgtm6SO3hC3,20,88,congruent,0.0,True,1,609.1000000238419,0.6091000000238419,초록,green
GE4hogtdLdTFbNasENgtm6SO3hC3,20,89,neutral,0.5,True,1,601.0,0.601,가방,green
GE4hogtdLdTFbNasENgtm6SO3hC3,20,90,incongruent,1.0,True,1,1170.2999999821186,1.1702999999821186,초록,red
GE4hogtdLdTFbNasENgtm6SO3hC3,20,91,congruent,0.0,True,1,1064.5999999940395,1.0645999999940394,노랑,yellow
GE4hogtdLdTFbNasENgtm6SO3hC3,20,92,neutral,0.5,True,1,576.9000000059605,0.5769000000059604,가방,yellow
GE4hogtdLdTFbNasENgtm6SO3hC3,20,93,neutral,0.5,True,1,977.1999999880792,0.9771999999880792,기차,blue
GE4hogtdLdTFbNasENgtm6SO3hC3,20,94,congruent,0.0,True,1,1143.300000011921,1.143300000011921,빨강,red
GE4hogtdLdTFbNasENgtm6SO3hC3,20,95,neutral,0.5,True,1,1037.300000011921,1.037300000011921,가방,blue
GE4hogtdLdTFbNasENgtm6SO3hC3,20,96,incongruent,1.0,True,1,502.59999999403954,0.5025999999940395,초록,blue
GE4hogtdLdTFbNasENgtm6SO3hC3,20,97,congruent,0.0,True,1,493.2000000178814,0.4932000000178814,파랑,blue
GE4hogtdLdTFbNasENgtm6SO3hC3,20,98,incongruent,1.0,True,1,1054.5999999940395,1.0545999999940396,빨강,green
GE4hogtdLdTFbNasENgtm6SO3hC3,20,99,incongruent,1.0,True,1,1361.4000000059605,1.3614000000059605,노랑,red
GE4hogtdLdTFbNasENgtm6SO3hC3,20,100,neutral,0.5,True,1,785.4000000059605,0.7854000000059604,기차,red
GE4hogtdLdTFbNasENgtm6SO3hC3,20,101,neutral,0.5,True,1,1179.0999999940395,1.1790999999940395,학교,yellow
GE4hogtdLdTFbNasENgtm6SO3hC3,20,102,incongruent,1.0,True,1,1122.0,1.122,초록,red
GE4hogtdLdTFbNasENgtm6SO3hC3,20,103,congruent,0.0,True,1,1051.2999999821186,1.0512999999821186,노랑,yellow
GE4hogtdLdTFbNasENgtm6SO3hC3,20,104,incongruent,1.0,True,1,1480.300000011921,1.4803000000119209,노랑,red
GE4hogtdLdTFbNasENgtm6SO3hC3,20,105,neutral,0.5,True,1,1452.9000000059605,1.4529000000059604,가방,yellow
GE4hogtdLdTFbNasENgtm6SO3hC3,20,106,congruent,0.0,True,1,1365.0999999940395,1.3650999999940396,빨강,red
GE4hogtdLdTFbNasENgtm6SO3hC3,20,107,incongruent,1.0,True,1,1185.2999999821186,1.1852999999821185,노랑,green
Qv0jhW3sqicqQvd7LfReAsI7nD73,32,0,incongruent,1.0,True,1,1200.0,1.2,파랑,yellow
Qv0jhW3sqicqQvd7LfReAsI7nD73,32,1,congruent,0.0,True,1,684.9000000059605,0.6849000000059605,빨강,red
Qv0jhW3sqicqQvd7LfReAsI7nD73,32,2,neutral,0.5,True,1,794.3999999761581,0.7943999999761582,가방,green
Qv0jhW3sqicqQvd7LfReAsI7nD73,32,3,neutral,0.5,True,1,693.6999999880791,0.6936999999880791,학교,blue
Qv0jhW3sqicqQvd7LfReAsI7nD73,32,4,incongruent,1.0,True,1,974.6999999880792,0.9746999999880792,초록,yellow
Qv0jhW3sqicqQvd7LfReAsI7nD73,32,5,incongruent,1.0,True,1,653.5999999940395,0.6535999999940395,초록,red
Qv0jhW3sqicqQvd7LfReAsI7nD73,32,6,congruent,0.0,True,1,655.0,0.655,빨강,red
Qv0jhW3sqicqQvd7LfReAsI7nD73,32,7,neutral,0.5,True,1,921.5,0.9215,가방,blue
Qv0jhW3sqicqQvd7LfReAsI7nD73,32,8,incongruent,1.0,True,1,1149.2999999821186,1.1492999999821185,빨강,yellow
Qv0jhW3sqicqQvd7LfReAsI7nD73,32,9,congruent,0.0,True,1,653.5999999940395,0.6535999999940395,빨강,red
Qv0jhW3sqicqQvd7LfReAsI7nD73,32,10,incongruent,1.0,True,1,588.4000000059605,0.5884000000059605,파랑,red
Qv0jhW3sqicqQvd7LfReAsI7nD73,32,11,incongruent,1.0,True,1,573.6000000238419,0.5736000000238418,노랑,red
Qv0jhW3sqicqQvd7LfReAsI7nD73,32,12,incongruent,1.0,True,1,661.9000000059605,0.6619000000059605,파랑,red
Qv0jhW3sqicqQvd7LfReAsI7nD73,32,13,incongruent,1.0,True,1,853.1999999880791,0.853199999988079,빨강,green
Qv0jhW3sqicqQvd7LfReAsI7nD73,32,14,neutral,0.5,True,1,667.0999999940395,0.6670999999940396,기차,yellow
Qv0jhW3sqicqQvd7LfReAsI7nD73,32,15,congruent,0.0,True,1,513.0,0.513,파랑,blue
Qv0jhW3sqicqQvd7LfReAsI7nD73,32,16,incongruent,1.0,True,1,816.0999999940395,0.8160999999940395,빨강,green
Qv0jhW3sqicqQvd7LfReAsI7nD73,32,17,congruent,0.0,True,1,522.5999999940395,0.5225999999940395,초록,green
Qv0jhW3sqicqQvd7LfReAsI7nD73,32,18,congruent,0.0,True,1,556.1999999880791,0.5561999999880791,파랑,blue
Qv0jhW3sqicqQvd7LfReAsI7nD73,32,19,neutral,0.5,True,1,646.7000000178814,0.6467000000178814,기차,red
Qv0jhW3sqicqQvd7LfReAsI7nD73,32,20,congruent,0.0,True,1,657.0999999940395,0.6570999999940396,빨강,red
Qv0jhW3sqicqQvd7LfReAsI7nD73,32,21,neutral,0.5,True,1,810.0999999940395,0.8100999999940396,기차,green
Qv0jhW3sqicqQvd7LfReAsI7nD73,32,22,incongruent,1.0,True,1,582.2000000178814,0.5822000000178814,초록,blue
Qv0jhW3sqicqQvd7LfReAsI7nD73,32,23,neutral,0.5,True,1,782.8000000119209,0.782800000011921,가방,yellow
Qv0jhW3sqicqQvd7LfReAsI7nD73,32,24,neutral,0.5,True,1,689.5999999940395,0.6895999999940395,학교,yellow
Qv0jhW3sqicqQvd7LfReAsI7nD73,32,25,neutral,0.5,True,1,611.5999999940395,0.6115999999940396,기차,red
Qv0jhW3sqicqQvd7LfReAsI7nD73,32,26,incongruent,1.0,True,1,614.5,0.6145,노랑,blue
Qv0jhW3sqicqQvd7LfReAsI7nD73,32,27,congruent,0.0,True,1,630.0999999940395,0.6300999999940395,파랑,blue
Qv0jhW3sqicqQvd7LfReAsI7nD73,32,28,congruent,0.0,True,1,629.9000000059605,0.6299000000059605,빨강,red
Qv0jhW3sqicqQvd7LfReAsI7nD73,32,29,neutral,0.5,True,1,543.6999999880791,0.543699999988079,기차,green
Qv0jhW3sqicqQvd7LfReAsI7nD73,32,30,congruent,0.0,True,1,698.2000000178814,0.6982000000178814,노랑,yellow
Qv0jhW3sqicqQvd7LfReAsI7nD73,32,31,neutral,0.5,True,1,641.4000000059605,0.6414000000059604,학교,red
Qv0jhW3sqicqQvd7LfReAsI7nD73,32,32,incongruent,1.0,True,1,1095.5,1.0955,노랑,blue
Qv0jhW3sqicqQvd7LfReAsI7nD73,32,33,congruent,0.0,True,1,515.0999999940395,0.5150999999940395,파랑,blue
Qv0jhW3sqicqQvd7LfReAsI7nD73,32,34,incongruent,1.0,True,1,1232.9000000059605,1.2329000000059605,노랑,green
Qv0jhW3sqicqQvd7LfReAsI7nD73,32,35,neutral,0.5,True,1,653.8000000119209,0.653800000011921,학교,green
Qv0jhW3sqicqQvd7LfReAsI7nD73,32,36,neutral,0.5,True,1,645.6999999880791,0.645699999988079,가방,red
Qv0jhW3sqicqQvd7LfReAsI7nD73,32,37,congruent,0.0,True,1,628.2999999821186,0.6282999999821186,파랑,blue
Qv0jhW3sqicqQvd7LfReAsI7nD73,32,38,neutral,0.5,True,1,970.0,0.97,기차,green
Qv0jhW3sqicqQvd7LfReAsI7nD73,32,39,neutral,0.5,True,1,566.5999999940395,0.5665999999940395,학교,green
Qv0jhW3sqicqQvd7LfReAsI7nD73,32,40,incongruent,1.0,True,1,689.5,0.6895,초록,blue
Qv0jhW3sqicqQvd7LfReAsI7nD73,32,41,congruent,0.0,True,1,742.5,0.7425,초록,green
Qv0jhW3sqicqQvd7LfReAsI7nD73,32,42,incongruent,1.0,True,1,677.5,0.6775,노랑,red
Qv0jhW3sqicqQvd7LfReAsI7nD73,32,43,congruent,0.0,True,1,603.0999999940395,0.6030999999940395,초록,green
Qv0jhW3sqicqQvd7LfReAsI7nD73,32,44,neutral,0.5,True,1,690.8000000119209,0.6908000000119209,기차,yellow
Qv0jhW3sqicqQvd7LfReAsI7nD73,32,45,neutral,0.5,True,1,728.7000000178814,0.7287000000178814,가방,green
Qv0jhW3sqicqQvd7LfReAsI7nD73,32,46,incongruent,1.0,True,1,1563.0,1.563,빨강,blue
Qv0jhW3sqicqQvd7LfReAsI7nD73,32,47,incongruent,1.0,True,1,663.5,0.6635,파랑,red
Qv0jhW3sqicqQvd7LfReAsI7nD73,32,48,incongruent,1.0,True,1,475.5,0.4755,빨강,blue
Qv0jhW3sqicqQvd7LfReAsI7nD73,32,49,incongruent,1.0,True,1,532.5,0.5325,노랑,green
Qv0jhW3sqicqQvd7LfReAsI7nD73,32,50,neutral,0.5,True,1,690.5999999940395,0.6905999999940395,가방,red
Qv0jhW3sqicqQvd7LfReAsI7nD73,32,51,neutral,0.5,True,1,390.5,0.3905,학교,blue
Qv0jhW3sqicqQvd7LfReAsI7nD73,32,52,incongruent,1.0,True,1,665.7000000178814,0.6657000000178814,빨강,blue
Qv0jhW3sqicqQvd7LfReAsI7nD73,32,53,congruent,0.0,True,1,556.0999999940395,0.5560999999940396,빨강,red
Qv0jhW3sqicqQvd7LfReAsI7nD73,32,54,neutral,0.5,True,1,472.40000000596046,0.47240000000596044,기차,blue
Qv0jhW3sqicqQvd7LfReAsI7nD73,32,55,congruent,0.0,True,1,714.0999999940395,0.7140999999940395,노랑,yellow
Qv0jhW3sqicqQvd7LfReAsI7nD73,32,56,congruent,0.0,True,1,571.8000000119209,0.5718000000119209,빨강,red
Qv0jhW3sqicqQvd7LfReAsI7nD73,32,57,congruent,0.0,True,1,747.5999999940395,0.7475999999940396,노랑,yellow
Qv0jhW3sqicqQvd7LfReAsI7nD73,32,58,neutral,0.5,True,1,647.5,0.6475,학교,blue
Qv0jhW3sqicqQvd7LfReAsI7nD73,32,59,congruent,0.0,True,1,575.2999999821186,0.5752999999821186,초록,green
Qv0jhW3sqicqQvd7LfReAsI7nD73,32,60,incongruent,1.0,True,1,665.0999999940395,0.6650999999940396,빨강,yellow
Qv0jhW3sqicqQvd7LfReAsI7nD73,32,61,congruent,0.0,True,1,536.8999999761581,0.5368999999761581,노랑,yellow
Qv0jhW3sqicqQvd7LfReAsI7nD73,32,62,incongruent,1.0,True,1,552.4000000059605,0.5524000000059605,초록,blue
Qv0jhW3sqicqQvd7LfReAsI7nD73,32,63,incongruent,1.0,True,1,1091.2999999821186,1.0912999999821187,초록,yellow
Qv0jhW3sqicqQvd7LfReAsI7nD73,32,64,congruent,0.0,True,1,713.7999999821186,0.7137999999821186,빨강,red
Qv0jhW3sqicqQvd7LfReAsI7nD73,32,65,neutral,0.5,True,1,679.3999999761581,0.6793999999761582,기차,red
Qv0jhW3sqicqQvd7LfReAsI7nD73,32,66,incongruent,1.0,True,1,657.3000000119209,0.6573000000119209,노랑,green
Qv0jhW3sqicqQvd7LfReAsI7nD73,32,67,incongruent,1.0,True,1,756.4000000059605,0.7564000000059604,초록,red
Qv0jhW3sqicqQvd7LfReAsI7nD73,32,68,neutral,0.5,True,1,574.1000000238419,0.5741000000238419,학교,red
Qv0jhW3sqicqQvd7LfReAsI7nD73,32,69,congruent,0.0,True,1,562.7999999821186,0.5627999999821186,초록,green
Qv0jhW3sqicqQvd7LfReAsI7nD73,32,70,incongruent,1.0,True,1,587.9000000059605,0.5879000000059604,초록,red
Qv0jhW3sqicqQvd7LfReAsI7nD73,32,71,congruent,0.0,True,1,644.5999999940395,0.6445999999940395,노랑,yellow
Qv0jhW3sqicqQvd7LfReAsI7nD73,32,72,neutral,0.5,True,1,614.5,0.6145,가방,blue
Qv0jhW3sqicqQvd7LfReAsI7nD73,32,73,congruent,0.0,True,1,513.0,0.513,파랑,blue
Qv0jhW3sqicqQvd7LfReAsI7nD73,32,74,neutral,0.5,True,1,824.6999999880791,0.8246999999880791,기차,yellow
Qv0jhW3sqicqQvd7LfReAsI7nD73,32,75,congruent,0.0,True,1,529.3000000119209,0.5293000000119209,초록,green
Qv0jhW3sqicqQvd7LfReAsI7nD73,32,76,congruent,0.0,True,1,647.0999999940395,0.6470999999940396,파랑,blue
Qv0jhW3sqicqQvd7LfReAsI7nD73,32,77,congruent,0.0,True,1,938.3000000119208,0.9383000000119208,노랑,yellow
Qv0jhW3sqicqQvd7LfReAsI7nD73,32,78,incongruent,1.0,True,1,811.1999999880791,0.8111999999880791,빨강,yellow
Qv0jhW3sqicqQvd7LfReAsI7nD73,32,79,incongruent,1.0,True,1,808.1999999880791,0.8081999999880791,파랑,green
Qv0jhW3sqicqQvd7LfReAsI7nD73,32,80,neutral,0.5,True,1,644.0,0.644,가방,red
Qv0jhW3sqicqQvd7LfReAsI7nD73,32,81,congruent,0.0,True,1,419.90000000596046,0.41990000000596045,초록,green
Qv0jhW3sqicqQvd7LfReAsI7nD73,32,82,congruent,0.0,True,1,541.2999999821186,0.5412999999821186,빨강,red
Qv0jhW3sqicqQvd7LfReAsI7nD73,32,83,incongruent,1.0,True,1,864.3000000119209,0.864300000011921,빨강,green
Qv0jhW3sqicqQvd7LfReAsI7nD73,32,84,neutral,0.5,True,1,802.5,0.8025,학교,yellow
Qv0jhW3sqicqQvd7LfReAsI7nD73,32,85,incongruent,1.0,True,1,584.6999999880791,0.5846999999880791,노랑,red
Qv0jhW3sqicqQvd7LfReAsI7nD73,32,86,neutral,0.5,True,1,415.8000000119209,0.41580000001192086,가방,blue
Qv0jhW3sqicqQvd7LfReAsI7nD73,32,87,incongruent,1.0,True,1,538.8000000119209,0.538800000011921,파랑,green
Qv0jhW3sqicqQvd7LfReAsI7nD73,32,88,incongruent,1.0,True,1,584.1999999880791,0.584199999988079,파랑,yellow
Qv0jhW3sqicqQvd7LfReAsI7nD73,32,89,congruent,0.0,True,1,766.5999999940395,0.7665999999940395,노랑,yellow
Qv0jhW3sqicqQvd7LfReAsI7nD73,32,90,congruent,0.0,True,1,485.2000000178814,0.4852000000178814,초록,green
Qv0jhW3sqicqQvd7LfReAsI7nD73,32,91,neutral,0.5,True,1,530.5,0.5305,가방,green
Qv0jhW3sqicqQvd7LfReAsI7nD73,32,92,incongruent,1.0,True,1,519.1999999880791,0.5191999999880791,노랑,blue
Qv0jhW3sqicqQvd7LfReAsI7nD73,32,93,neutral,0.5,True,1,382.8000000119209,0.3828000000119209,기차,blue
Qv0jhW3sqicqQvd7LfReAsI7nD73,32,94,congruent,0.0,True,1,397.60000002384186,0.3976000000238419,파랑,blue
Qv0jhW3sqicqQvd7LfReAsI7nD73,32,95,neutral,0.5,True,1,580.7999999821186,0.5807999999821186,학교,red
Qv0jhW3sqicqQvd7LfReAsI7nD73,32,96,incongruent,1.0,True,1,570.8000000119209,0.5708000000119209,파랑,yellow
Qv0jhW3sqicqQvd7LfReAsI7nD73,32,97,neutral,0.5,True,1,440.59999999403954,0.44059999999403954,가방,yellow
Qv0jhW3sqicqQvd7LfReAsI7nD73,32,98,neutral,0.5,True,1,444.2999999821186,0.4442999999821186,학교,green
Qv0jhW3sqicqQvd7LfReAsI7nD73,32,99,neutral,0.5,True,1,548.4000000059605,0.5484000000059605,기차,blue
Qv0jhW3sqicqQvd7LfReAsI7nD73,32,100,congruent,0.0,True,1,543.5,0.5435,파랑,blue
Qv0jhW3sqicqQvd7LfReAsI7nD73,32,101,congruent,0.0,True,1,571.2000000178814,0.5712000000178814,노랑,yellow
Qv0jhW3sqicqQvd7LfReAsI7nD73,32,102,incongruent,1.0,True,1,473.0,0.473,초록,yellow
Qv0jhW3sqicqQvd7LfReAsI7nD73,32,103,congruent,0.0,True,1,631.5999999940395,0.6315999999940395,초록,green
Qv0jhW3sqicqQvd7LfReAsI7nD73,32,104,congruent,0.0,True,1,584.0999999940395,0.5840999999940395,노랑,yellow
Qv0jhW3sqicqQvd7LfReAsI7nD73,32,105,neutral,0.5,True,1,495.09999999403954,0.49509999999403953,가방,yellow
Qv0jhW3sqicqQvd7LfReAsI7nD73,32,106,neutral,0.5,True,1,512.5999999940395,0.5125999999940395,학교,yellow
Qv0jhW3sqicqQvd7LfReAsI7nD73,32,107,incongruent,1.0,True,1,562.9000000059605,0.5629000000059604,파랑,green
ORvIk1xRWIQmKuLVe6GXNouvAXx2,28,0,incongruent,1.0,True,1,912.5,0.9125,초록,yellow
ORvIk1xRWIQmKuLVe6GXNouvAXx2,28,1,congruent,0.0,True,1,988.399999976158,0.988399999976158,파랑,blue
ORvIk1xRWIQmKuLVe6GXNouvAXx2,28,2,incongruent,1.0,True,1,920.7000000476836,0.9207000000476836,빨강,blue
ORvIk1xRWIQmKuLVe6GXNouvAXx2,28,3,congruent,0.0,True,1,1100.600000023842,1.100600000023842,빨강,red
ORvIk1xRWIQmKuLVe6GXNouvAXx2,28,4,neutral,0.5,True,1,1351.0,1.351,기차,green
ORvIk1xRWIQmKuLVe6GXNouvAXx2,28,5,neutral,0.5,True,1,845.7000000476837,0.8457000000476838,가방,green
ORvIk1xRWIQmKuLVe6GXNouvAXx2,28,6,incongruent,1.0,True,1,1194.899999976158,1.1948999999761578,초록,blue
ORvIk1xRWIQmKuLVe6GXNouvAXx2,28,7,incongruent,1.0,True,1,1049.5999999046326,1.0495999999046326,노랑,blue
ORvIk1xRWIQmKuLVe6GXNouvAXx2,28,8,congruent,0.0,True,1,1193.2000000476835,1.1932000000476835,빨강,red
ORvIk1xRWIQmKuLVe6GXNouvAXx2,28,9,congruent,0.0,True,1,695.9000000953674,0.6959000000953675,초록,green
ORvIk1xRWIQmKuLVe6GXNouvAXx2,28,10,incongruent,1.0,False,0,821.2000000476837,0.8212000000476837,파랑,yellow
ORvIk1xRWIQmKuLVe6GXNouvAXx2,28,11,incongruent,1.0,True,1,1427.8000000715256,1.4278000000715256,파랑,green
ORvIk1xRWIQmKuLVe6GXNouvAXx2,28,12,neutral,0.5,True,1,913.1999999284744,0.9131999999284744,가방,yellow
ORvIk1xRWIQmKuLVe6GXNouvAXx2,28,13,neutral,0.5,True,1,1055.0999999046326,1.0550999999046327,기차,red
ORvIk1xRWIQmKuLVe6GXNouvAXx2,28,14,incongruent,1.0,True,1,1214.399999976158,1.2143999999761579,초록,red
ORvIk1xRWIQmKuLVe6GXNouvAXx2,28,15,neutral,0.5,True,1,784.7999999523163,0.7847999999523163,기차,blue
ORvIk1xRWIQmKuLVe6GXNouvAXx2,28,16,neutral,0.5,True,1,1342.7000000476835,1.3427000000476834,가방,blue
ORvIk1xRWIQmKuLVe6GXNouvAXx2,28,17,congruent,0.0,True,1,749.5,0.7495,파랑,blue
ORvIk1xRWIQmKuLVe6GXNouvAXx2,28,18,incongruent,1.0,True,1,933.100000023842,0.933100000023842,빨강,green
ORvIk1xRWIQmKuLVe6GXNouvAXx2,28,19,congruent,0.0,True,1,551.8999999761581,0.5518999999761581,초록,green
ORvIk1xRWIQmKuLVe6GXNouvAXx2,28,20,incongruent,1.0,True,1,1311.9000000953674,1.3119000000953673,파랑,red
ORvIk1xRWIQmKuLVe6GXNouvAXx2,28,21,incongruent,1.0,True,1,1502.5,1.5025,빨강,green
ORvIk1xRWIQmKuLVe6GXNouvAXx2,28,22,congruent,0.0,True,1,648.8999999761581,0.6488999999761581,초록,green
ORvIk1xRWIQmKuLVe6GXNouvAXx2,28,23,incongruent,1.0,True,1,595.0999999046326,0.5950999999046326,파랑,green
ORvIk1xRWIQmKuLVe6GXNouvAXx2,28,24,congruent,0.0,True,1,827.7000000476837,0.8277000000476837,파랑,blue
ORvIk1xRWIQmKuLVe6GXNouvAXx2,28,25,congruent,0.0,True,1,1167.600000023842,1.167600000023842,노랑,yellow
ORvIk1xRWIQmKuLVe6GXNouvAXx2,28,26,congruent,0.0,True,1,766.8999999761581,0.7668999999761581,초록,green
ORvIk1xRWIQmKuLVe6GXNouvAXx2,28,27,incongruent,1.0,True,1,900.3000000715256,0.9003000000715256,초록,red
ORvIk1xRWIQmKuLVe6GXNouvAXx2,28,28,congruent,0.0,True,1,1321.5,1.3215,노랑,yellow
ORvIk1xRWIQmKuLVe6GXNouvAXx2,28,29,neutral,0.5,True,1,1127.600000023842,1.127600000023842,학교,red
ORvIk1xRWIQmKuLVe6GXNouvAXx2,28,30,incongruent,1.0,True,1,1614.7000000476835,1.6147000000476834,빨강,blue
ORvIk1xRWIQmKuLVe6GXNouvAXx2,28,31,congruent,0.0,True,1,780.9000000953674,0.7809000000953674,빨강,red
ORvIk1xRWIQmKuLVe6GXNouvAXx2,28,32,congruent,0.0,True,1,665.3999999761581,0.6653999999761582,초록,green
ORvIk1xRWIQmKuLVe6GXNouvAXx2,28,33,incongruent,1.0,True,1,825.6000000238419,0.8256000000238418,노랑,green
ORvIk1xRWIQmKuLVe6GXNouvAXx2,28,34,congruent,0.0,True,1,753.3000000715256,0.7533000000715255,노랑,yellow
ORvIk1xRWIQmKuLVe6GXNouvAXx2,28,35,congruent,0.0,True,1,592.7000000476837,0.5927000000476838,초록,green
ORvIk1xRWIQmKuLVe6GXNouvAXx2,28,36,congruent,0.0,True,1,823.1999999284744,0.8231999999284745,빨강,red
ORvIk1xRWIQmKuLVe6GXNouvAXx2,28,37,neutral,0.5,True,1,918.7000000476836,0.9187000000476836,학교,red
ORvIk1xRWIQmKuLVe6GXNouvAXx2,28,38,incongruent,1.0,True,1,740.7000000476837,0.7407000000476838,빨강,yellow
ORvIk1xRWIQmKuLVe6GXNouvAXx2,28,39,congruent,0.0,True,1,619.5999999046326,0.6195999999046325,초록,green
ORvIk1xRWIQmKuLVe6GXNouvAXx2,28,40,neutral,0.5,True,1,735.6999999284744,0.7356999999284745,가방,red
ORvIk1xRWIQmKuLVe6GXNouvAXx2,28,41,neutral,0.5,True,1,876.2000000476837,0.8762000000476837,가방,blue
ORvIk1xRWIQmKuLVe6GXNouvAXx2,28,42,incongruent,1.0,True,1,1101.0,1.101,노랑,red
ORvIk1xRWIQmKuLVe6GXNouvAXx2,28,43,congruent,0.0,True,1,699.0,0.699,노랑,yellow
ORvIk1xRWIQmKuLVe6GXNouvAXx2,28,44,congruent,0.0,True,1,1721.600000023842,1.721600000023842,파랑,blue
ORvIk1xRWIQmKuLVe6GXNouvAXx2,28,45,neutral,0.5,True,1,745.5,0.7455,기차,green
ORvIk1xRWIQmKuLVe6GXNouvAXx2,28,46,neutral,0.5,True,1,611.5,0.6115,가방,blue
ORvIk1xRWIQmKuLVe6GXNouvAXx2,28,47,neutral,0.5,False,0,623.0,0.623,기차,blue
ORvIk1xRWIQmKuLVe6GXNouvAXx2,28,48,congruent,0.0,True,1,955.5,0.9555,파랑,blue
ORvIk1xRWIQmKuLVe6GXNouvAXx2,28,49,neutral,0.5,True,1,728.8999999761581,0.7288999999761582,학교,green
ORvIk1xRWIQmKuLVe6GXNouvAXx2,28,50,neutral,0.5,True,1,842.5,0.8425,가방,yellow
ORvIk1xRWIQmKuLVe6GXNouvAXx2,28,51,congruent,0.0,True,1,683.2999999523163,0.6832999999523163,노랑,yellow
ORvIk1xRWIQmKuLVe6GXNouvAXx2,28,52,congruent,0.0,True,1,811.3999999761581,0.8113999999761582,빨강,red
ORvIk1xRWIQmKuLVe6GXNouvAXx2,28,53,congruent,0.0,True,1,535.2999999523163,0.5352999999523163,파랑,blue
ORvIk1xRWIQmKuLVe6GXNouvAXx2,28,54,neutral,0.5,True,1,739.7000000476837,0.7397000000476838,학교,yellow
ORvIk1xRWIQmKuLVe6GXNouvAXx2,28,55,incongruent,1.0,True,1,1201.899999976158,1.201899999976158,파랑,yellow
ORvIk1xRWIQmKuLVe6GXNouvAXx2,28,56,neutral,0.5,True,1,786.8000000715256,0.7868000000715256,가방,red
ORvIk1xRWIQmKuLVe6GXNouvAXx2,28,57,neutral,0.5,True,1,894.0999999046326,0.8940999999046325,기차,red
ORvIk1xRWIQmKuLVe6GXNouvAXx2,28,58,incongruent,1.0,True,1,1680.1999999284744,1.6801999999284745,파랑,yellow
ORvIk1xRWIQmKuLVe6GXNouvAXx2,28,59,incongruent,1.0,True,1,975.3000000715256,0.9753000000715256,파랑,red
ORvIk1xRWIQmKuLVe6GXNouvAXx2,28,60,neutral,0.5,True,1,1265.0999999046326,1.2650999999046326,학교,red
ORvIk1xRWIQmKuLVe6GXNouvAXx2,28,61,incongruent,1.0,True,1,1166.6999999284744,1.1666999999284744,노랑,green
ORvIk1xRWIQmKuLVe6GXNouvAXx2,28,62,congruent,0.0,True,1,632.0,0.632,초록,green
ORvIk1xRWIQmKuLVe6GXNouvAXx2,28,63,neutral,0.5,True,1,1295.2999999523165,1.2952999999523165,학교,blue
ORvIk1xRWIQmKuLVe6GXNouvAXx2,28,64,congruent,0.0,True,1,855.5,0.8555,빨강,red
ORvIk1xRWIQmKuLVe6GXNouvAXx2,28,65,neutral,0.5,True,1,1100.5999999046326,1.1005999999046325,학교,yellow
ORvIk1xRWIQmKuLVe6GXNouvAXx2,28,66,neutral,0.5,True,1,640.8999999761581,0.6408999999761581,기차,yellow
ORvIk1xRWIQmKuLVe6GXNouvAXx2,28,67,congruent,0.0,True,1,864.0,0.864,빨강,red
ORvIk1xRWIQmKuLVe6GXNouvAXx2,28,68,neutral,0.5,True,1,1055.7000000476835,1.0557000000476835,기차,yellow
ORvIk1xRWIQmKuLVe6GXNouvAXx2,28,69,incongruent,1.0,True,1,1230.100000023842,1.230100000023842,파랑,red
ORvIk1xRWIQmKuLVe6GXNouvAXx2,28,70,incongruent,1.0,True,1,862.2000000476837,0.8622000000476837,노랑,red
ORvIk1xRWIQmKuLVe6GXNouvAXx2,28,71,incongruent,1.0,True,1,901.600000023842,0.901600000023842,초록,yellow
ORvIk1xRWIQmKuLVe6GXNouvAXx2,28,72,neutral,0.5,True,1,647.8999999761581,0.6478999999761581,기차,yellow
ORvIk1xRWIQmKuLVe6GXNouvAXx2,28,73,incongruent,1.0,True,1,893.1999999284744,0.8931999999284744,빨강,green
ORvIk1xRWIQmKuLVe6GXNouvAXx2,28,74,neutral,0.5,True,1,638.3999999761581,0.6383999999761582,기차,blue
ORvIk1xRWIQmKuLVe6GXNouvAXx2,28,75,neutral,0.5,True,1,674.8000000715256,0.6748000000715255,기차,red
ORvIk1xRWIQmKuLVe6GXNouvAXx2,28,76,incongruent,1.0,True,1,725.3999999761581,0.7253999999761581,초록,red
ORvIk1xRWIQmKuLVe6GXNouvAXx2,28,77,incongruent,1.0,True,1,1250.7000000476835,1.2507000000476836,빨강,blue
ORvIk1xRWIQmKuLVe6GXNouvAXx2,28,78,congruent,0.0,True,1,738.8999999761581,0.7388999999761582,노랑,yellow
ORvIk1xRWIQmKuLVe6GXNouvAXx2,28,79,incongruent,1.0,True,1,1054.600000023842,1.054600000023842,노랑,green
ORvIk1xRWIQmKuLVe6GXNouvAXx2,28,80,neutral,0.5,True,1,1392.7000000476835,1.3927000000476835,기차,green
ORvIk1xRWIQmKuLVe6GXNouvAXx2,28,81,congruent,0.0,True,1,704.6000000238419,0.7046000000238418,빨강,red
ORvIk1xRWIQmKuLVe6GXNouvAXx2,28,82,incongruent,1.0,True,1,857.8999999761581,0.8578999999761582,파랑,green
ORvIk1xRWIQmKuLVe6GXNouvAXx2,28,83,neutral,0.5,True,1,1012.9000000953674,1.0129000000953674,가방,green
ORvIk1xRWIQmKuLVe6GXNouvAXx2,28,84,incongruent,1.0,True,1,920.100000023842,0.920100000023842,초록,yellow
ORvIk1xRWIQmKuLVe6GXNouvAXx2,28,85,incongruent,1.0,True,1,1367.100000023842,1.367100000023842,노랑,red
ORvIk1xRWIQmKuLVe6GXNouvAXx2,28,86,congruent,0.0,True,1,570.7999999523163,0.5707999999523163,빨강,red
ORvIk1xRWIQmKuLVe6GXNouvAXx2,28,87,congruent,0.0,True,1,771.5,0.7715,노랑,yellow
ORvIk1xRWIQmKuLVe6GXNouvAXx2,28,88,neutral,0.5,True,1,1498.3000000715256,1.4983000000715256,학교,blue
ORvIk1xRWIQmKuLVe6GXNouvAXx2,28,89,neutral,0.5,True,1,1037.7000000476835,1.0377000000476835,학교,green
ORvIk1xRWIQmKuLVe6GXNouvAXx2,28,90,incongruent,1.0,True,1,881.2000000476837,0.8812000000476837,노랑,blue
ORvIk1xRWIQmKuLVe6GXNouvAXx2,28,91,congruent,0.0,True,1,392.0,0.392,파랑,blue
ORvIk1xRWIQmKuLVe6GXNouvAXx2,28,92,incongruent,1.0,False,0,975.600000023842,0.975600000023842,초록,blue
ORvIk1xRWIQmKuLVe6GXNouvAXx2,28,93,neutral,0.5,True,1,1734.3000000715256,1.7343000000715256,가방,yellow
ORvIk1xRWIQmKuLVe6GXNouvAXx2,28,94,congruent,0.0,True,1,589.5,0.5895,노랑,yellow
ORvIk1xRWIQmKuLVe6GXNouvAXx2,28,95,incongruent,1.0,False,0,2242.0,2.242,빨강,yellow
ORvIk1xRWIQmKuLVe6GXNouvAXx2,28,96,incongruent,1.0,True,1,2543.100000023842,2.5431000000238417,초록,blue
ORvIk1xRWIQmKuLVe6GXNouvAXx2,28,97,congruent,0.0,True,1,1322.600000023842,1.322600000023842,파랑,blue
ORvIk1xRWIQmKuLVe6GXNouvAXx2,28,98,incongruent,1.0,True,1,644.2000000476837,0.6442000000476837,노랑,blue
ORvIk1xRWIQmKuLVe6GXNouvAXx2,28,99,incongruent,1.0,True,1,1411.5,1.4115,빨강,yellow
ORvIk1xRWIQmKuLVe6GXNouvAXx2,28,100,neutral,0.5,True,1,2102.1999999284744,2.1021999999284744,가방,red
ORvIk1xRWIQmKuLVe6GXNouvAXx2,28,101,neutral,0.5,True,1,739.8999999761581,0.7398999999761582,학교,green
ORvIk1xRWIQmKuLVe6GXNouvAXx2,28,102,congruent,0.0,True,1,1021.0,1.021,노랑,yellow
ORvIk1xRWIQmKuLVe6GXNouvAXx2,28,103,neutral,0.5,True,1,518.3000000715256,0.5183000000715255,학교,yellow
ORvIk1xRWIQmKuLVe6GXNouvAXx2,28,104,congruent,0.0,True,1,880.1999999284744,0.8801999999284744,파랑,blue
ORvIk1xRWIQmKuLVe6GXNouvAXx2,28,105,congruent,0.0,True,1,631.6999999284744,0.6316999999284745,초록,green
ORvIk1xRWIQmKuLVe6GXNouvAXx2,28,106,neutral,0.5,True,1,672.5,0.6725,가방,green
ORvIk1xRWIQmKuLVe6GXNouvAXx2,28,107,neutral,0.5,True,1,626.3999999761581,0.6263999999761581,학교,blue
80UJMJbCOMgs6YVpsMgXfYTzw6o2,6,0,neutral,0.5,True,1,1266.0999999996277,1.2660999999996276,학교,blue
80UJMJbCOMgs6YVpsMgXfYTzw6o2,6,1,incongruent,1.0,True,1,925.3000000007452,0.9253000000007452,초록,red
80UJMJbCOMgs6YVpsMgXfYTzw6o2,6,2,incongruent,1.0,True,1,815.0,0.815,노랑,green
80UJMJbCOMgs6YVpsMgXfYTzw6o2,6,3,incongruent,1.0,True,1,778.9000000003725,0.7789000000003725,빨강,green
80UJMJbCOMgs6YVpsMgXfYTzw6o2,6,4,neutral,0.5,True,1,861.7999999988824,0.8617999999988825,가방,red
80UJMJbCOMgs6YVpsMgXfYTzw6o2,6,5,congruent,0.0,True,1,912.8000000007452,0.9128000000007451,노랑,yellow
80UJMJbCOMgs6YVpsMgXfYTzw6o2,6,6,neutral,0.5,True,1,847.3000000007451,0.847300000000745,학교,green
80UJMJbCOMgs6YVpsMgXfYTzw6o2,6,7,incongruent,1.0,True,1,868.8999999985099,0.8688999999985099,노랑,red
80UJMJbCOMgs6YVpsMgXfYTzw6o2,6,8,congruent,0.0,True,1,701.5999999996275,0.7015999999996275,빨강,red
80UJMJbCOMgs6YVpsMgXfYTzw6o2,6,9,congruent,0.0,True,1,830.0,0.83,파랑,blue
80UJMJbCOMgs6YVpsMgXfYTzw6o2,6,10,congruent,0.0,True,1,726.5999999996275,0.7265999999996274,초록,green
80UJMJbCOMgs6YVpsMgXfYTzw6o2,6,11,incongruent,1.0,True,1,732.0,0.732,파랑,green
80UJMJbCOMgs6YVpsMgXfYTzw6o2,6,12,incongruent,1.0,True,1,838.1999999992549,0.838199999999255,빨강,yellow
80UJMJbCOMgs6YVpsMgXfYTzw6o2,6,13,congruent,0.0,True,1,801.2000000011176,0.8012000000011176,노랑,yellow
80UJMJbCOMgs6YVpsMgXfYTzw6o2,6,14,incongruent,1.0,True,1,721.7000000011176,0.7217000000011176,노랑,blue
80UJMJbCOMgs6YVpsMgXfYTzw6o2,6,15,neutral,0.5,True,1,766.0,0.766,기차,green
80UJMJbCOMgs6YVpsMgXfYTzw6o2,6,16,congruent,0.0,True,1,754.4000000003725,0.7544000000003726,빨강,red
80UJMJbCOMgs6YVpsMgXfYTzw6o2,6,17,neutral,0.5,True,1,638.3000000007451,0.638300000000745,가방,red
80UJMJbCOMgs6YVpsMgXfYTzw6o2,6,18,neutral,0.5,True,1,597.1999999992549,0.597199999999255,기차,green
80UJMJbCOMgs6YVpsMgXfYTzw6o2,6,19,incongruent,1.0,True,1,839.8000000007451,0.8398000000007451,초록,yellow
80UJMJbCOMgs6YVpsMgXfYTzw6o2,6,20,congruent,0.0,True,1,861.8000000007451,0.8618000000007451,노랑,yellow
80UJMJbCOMgs6YVpsMgXfYTzw6o2,6,21,neutral,0.5,True,1,801.7999999988824,0.8017999999988824,기차,red
80UJMJbCOMgs6YVpsMgXfYTzw6o2,6,22,neutral,0.5,True,1,835.5999999996275,0.8355999999996274,학교,blue
80UJMJbCOMgs6YVpsMgXfYTzw6o2,6,23,congruent,0.0,True,1,844.0999999996275,0.8440999999996275,빨강,red
80UJMJbCOMgs6YVpsMgXfYTzw6o2,6,24,neutral,0.5,True,1,720.0999999996275,0.7200999999996275,학교,yellow
80UJMJbCOMgs6YVpsMgXfYTzw6o2,6,25,neutral,0.5,True,1,747.9000000003725,0.7479000000003725,기차,red
80UJMJbCOMgs6YVpsMgXfYTzw6o2,6,26,incongruent,1.0,True,1,880.5,0.8805,빨강,green
80UJMJbCOMgs6YVpsMgXfYTzw6o2,6,27,congruent,0.0,True,1,669.5999999996275,0.6695999999996275,파랑,blue
80UJMJbCOMgs6YVpsMgXfYTzw6o2,6,28,neutral,0.5,True,1,790.8000000007451,0.790800000000745,학교,yellow
80UJMJbCOMgs6YVpsMgXfYTzw6o2,6,29,incongruent,1.0,True,1,1035.5,1.0355,초록,blue
80UJMJbCOMgs6YVpsMgXfYTzw6o2,6,30,congruent,0.0,True,1,636.5,0.6365,파랑,blue
80UJMJbCOMgs6YVpsMgXfYTzw6o2,6,31,incongruent,1.0,True,1,910.4000000003724,0.9104000000003725,빨강,blue
80UJMJbCOMgs6YVpsMgXfYTzw6o2,6,32,incongruent,1.0,True,1,849.4000000003725,0.8494000000003725,초록,yellow
80UJMJbCOMgs6YVpsMgXfYTzw6o2,6,33,neutral,0.5,True,1,799.3000000007451,0.7993000000007451,기차,blue
80UJMJbCOMgs6YVpsMgXfYTzw6o2,6,34,incongruent,1.0,True,1,900.2000000011176,0.9002000000011176,초록,yellow
80UJMJbCOMgs6YVpsMgXfYTzw6o2,6,35,incongruent,1.0,True,1,742.8000000007451,0.7428000000007451,파랑,yellow
80UJMJbCOMgs6YVpsMgXfYTzw6o2,6,36,neutral,0.5,True,1,817.8000000007451,0.817800000000745,가방,green
80UJMJbCOMgs6YVpsMgXfYTzw6o2,6,37,incongruent,1.0,True,1,766.8000000007451,0.7668000000007451,파랑,yellow
80UJMJbCOMgs6YVpsMgXfYTzw6o2,6,38,congruent,0.0,True,1,770.0,0.77,빨강,red
80UJMJbCOMgs6YVpsMgXfYTzw6o2,6,39,incongruent,1.0,True,1,754.1999999992549,0.7541999999992549,파랑,green
80UJMJbCOMgs6YVpsMgXfYTzw6o2,6,40,neutral,0.5,True,1,781.0,0.781,학교,red
80UJMJbCOMgs6YVpsMgXfYTzw6o2,6,41,neutral,0.5,True,1,716.0,0.716,기차,yellow
80UJMJbCOMgs6YVpsMgXfYTzw6o2,6,42,neutral,0.5,True,1,452.0999999996274,0.4520999999996274,가방,yellow
80UJMJbCOMgs6YVpsMgXfYTzw6o2,6,43,incongruent,1.0,True,1,427.80000000074506,0.4278000000007451,빨강,yellow
80UJMJbCOMgs6YVpsMgXfYTzw6o2,6,44,neutral,0.5,True,1,919.8000000007452,0.9198000000007451,기차,green
80UJMJbCOMgs6YVpsMgXfYTzw6o2,6,45,congruent,0.0,True,1,556.5,0.5565,초록,green
80UJMJbCOMgs6YVpsMgXfYTzw6o2,6,46,incongruent,1.0,True,1,1143.800000000745,1.143800000000745,파랑,red
80UJMJbCOMgs6YVpsMgXfYTzw6o2,6,47,neutral,0.5,True,1,932.9000000003724,0.9329000000003724,가방,blue
80UJMJbCOMgs6YVpsMgXfYTzw6o2,6,48,neutral,0.5,True,1,847.3000000007451,0.847300000000745,기차,yellow
80UJMJbCOMgs6YVpsMgXfYTzw6o2,6,49,neutral,0.5,True,1,986.5,0.9865,가방,blue
80UJMJbCOMgs6YVpsMgXfYTzw6o2,6,50,neutral,0.5,True,1,477.8999999985099,0.4778999999985099,기차,blue
80UJMJbCOMgs6YVpsMgXfYTzw6o2,6,51,congruent,0.0,True,1,722.8000000007451,0.7228000000007451,빨강,red
80UJMJbCOMgs6YVpsMgXfYTzw6o2,6,52,incongruent,1.0,True,1,524.8000000007451,0.524800000000745,초록,red
80UJMJbCOMgs6YVpsMgXfYTzw6o2,6,53,neutral,0.5,True,1,777.0999999996275,0.7770999999996274,가방,yellow
80UJMJbCOMgs6YVpsMgXfYTzw6o2,6,54,neutral,0.5,True,1,1152.7000000011176,1.1527000000011176,기차,red
80UJMJbCOMgs6YVpsMgXfYTzw6o2,6,55,congruent,0.0,True,1,428.5,0.4285,빨강,red
80UJMJbCOMgs6YVpsMgXfYTzw6o2,6,56,neutral,0.5,True,1,798.5999999996275,0.7985999999996275,기차,yellow
80UJMJbCOMgs6YVpsMgXfYTzw6o2,6,57,congruent,0.0,True,1,682.9000000003725,0.6829000000003725,파랑,blue
80UJMJbCOMgs6YVpsMgXfYTzw6o2,6,58,congruent,0.0,True,1,776.3000000007451,0.7763000000007451,빨강,red
80UJMJbCOMgs6YVpsMgXfYTzw6o2,6,59,neutral,0.5,True,1,552.4000000003725,0.5524000000003725,학교,red
80UJMJbCOMgs6YVpsMgXfYTzw6o2,6,60,incongruent,1.0,True,1,803.0999999996275,0.8030999999996274,빨강,blue
80UJMJbCOMgs6YVpsMgXfYTzw6o2,6,61,congruent,0.0,True,1,895.2000000011176,0.8952000000011175,빨강,red
80UJMJbCOMgs6YVpsMgXfYTzw6o2,6,62,congruent,0.0,True,1,705.0,0.705,노랑,yellow
80UJMJbCOMgs6YVpsMgXfYTzw6o2,6,63,congruent,0.0,True,1,1052.7999999988824,1.0527999999988824,파랑,blue
80UJMJbCOMgs6YVpsMgXfYTzw6o2,6,64,incongruent,1.0,True,1,748.0999999996275,0.7480999999996275,노랑,red
80UJMJbCOMgs6YVpsMgXfYTzw6o2,6,65,incongruent,1.0,True,1,845.0,0.845,빨강,yellow
80UJMJbCOMgs6YVpsMgXfYTzw6o2,6,66,neutral,0.5,True,1,985.5999999996276,0.9855999999996276,가방,red
80UJMJbCOMgs6YVpsMgXfYTzw6o2,6,67,congruent,0.0,True,1,653.5999999996275,0.6535999999996275,초록,green
80UJMJbCOMgs6YVpsMgXfYTzw6o2,6,68,congruent,0.0,True,1,827.4000000003725,0.8274000000003725,노랑,yellow
80UJMJbCOMgs6YVpsMgXfYTzw6o2,6,69,neutral,0.5,True,1,758.8000000007451,0.7588000000007451,학교,green
80UJMJbCOMgs6YVpsMgXfYTzw6o2,6,70,neutral,0.5,True,1,837.0999999996275,0.8370999999996275,기차,blue
80UJMJbCOMgs6YVpsMgXfYTzw6o2,6,71,congruent,0.0,True,1,897.3000000007451,0.8973000000007451,초록,green
80UJMJbCOMgs6YVpsMgXfYTzw6o2,6,72,neutral,0.5,True,1,455.5,0.4555,가방,green
80UJMJbCOMgs6YVpsMgXfYTzw6o2,6,73,incongruent,1.0,True,1,426.80000000074506,0.4268000000007451,빨강,green
80UJMJbCOMgs6YVpsMgXfYTzw6o2,6,74,incongruent,1.0,True,1,903.2999999988824,0.9032999999988824,노랑,blue
80UJMJbCOMgs6YVpsMgXfYTzw6o2,6,75,incongruent,1.0,True,1,765.9000000003725,0.7659000000003725,파랑,green
80UJMJbCOMgs6YVpsMgXfYTzw6o2,6,76,neutral,0.5,True,1,472.2000000011176,0.4722000000011176,학교,green
80UJMJbCOMgs6YVpsMgXfYTzw6o2,6,77,congruent,0.0,True,1,438.5999999996274,0.4385999999996274,초록,green
80UJMJbCOMgs6YVpsMgXfYTzw6o2,6,78,neutral,0.5,True,1,634.4000000003725,0.6344000000003726,가방,blue
80UJMJbCOMgs6YVpsMgXfYTzw6o2,6,79,congruent,0.0,True,1,712.2999999988824,0.7122999999988824,노랑,yellow
80UJMJbCOMgs6YVpsMgXfYTzw6o2,6,80,congruent,0.0,True,1,614.8000000007451,0.6148000000007451,파랑,blue
80UJMJbCOMgs6YVpsMgXfYTzw6o2,6,81,incongruent,1.0,True,1,655.2000000011176,0.6552000000011176,노랑,green
80UJMJbCOMgs6YVpsMgXfYTzw6o2,6,82,incongruent,1.0,True,1,878.9000000003725,0.8789000000003725,초록,red
80UJMJbCOMgs6YVpsMgXfYTzw6o2,6,83,congruent,0.0,True,1,532.5999999996275,0.5325999999996275,초록,green
80UJMJbCOMgs6YVpsMgXfYTzw6o2,6,84,incongruent,1.0,True,1,695.9000000003725,0.6959000000003726,파랑,yellow
80UJMJbCOMgs6YVpsMgXfYTzw6o2,6,85,incongruent,1.0,True,1,908.3000000007452,0.9083000000007452,파랑,red
80UJMJbCOMgs6YVpsMgXfYTzw6o2,6,86,incongruent,1.0,True,1,773.8000000007451,0.773800000000745,초록,blue
80UJMJbCOMgs6YVpsMgXfYTzw6o2,6,87,congruent,0.0,True,1,614.9000000003725,0.6149000000003725,초록,green
80UJMJbCOMgs6YVpsMgXfYTzw6o2,6,88,congruent,0.0,True,1,687.9000000003725,0.6879000000003725,노랑,yellow
80UJMJbCOMgs6YVpsMgXfYTzw6o2,6,89,incongruent,1.0,True,1,799.8000000007451,0.799800000000745,노랑,blue
80UJMJbCOMgs6YVpsMgXfYTzw6o2,6,90,congruent,0.0,True,1,629.8000000007451,0.6298000000007451,초록,green
80UJMJbCOMgs6YVpsMgXfYTzw6o2,6,91,incongruent,1.0,True,1,688.5999999996275,0.6885999999996275,노랑,red
80UJMJbCOMgs6YVpsMgXfYTzw6o2,6,92,congruent,0.0,True,1,752.6999999992549,0.752699999999255,초록,green
80UJMJbCOMgs6YVpsMgXfYTzw6o2,6,93,neutral,0.5,True,1,800.5999999996275,0.8005999999996275,학교,red
80UJMJbCOMgs6YVpsMgXfYTzw6o2,6,94,congruent,0.0,True,1,644.1000000014901,0.6441000000014901,빨강,red
80UJMJbCOMgs6YVpsMgXfYTzw6o2,6,95,incongruent,1.0,True,1,704.5,0.7045,초록,blue
80UJMJbCOMgs6YVpsMgXfYTzw6o2,6,96,congruent,0.0,True,1,668.5,0.6685,노랑,yellow
80UJMJbCOMgs6YVpsMgXfYTzw6o2,6,97,congruent,0.0,True,1,569.9000000003725,0.5699000000003726,파랑,blue
80UJMJbCOMgs6YVpsMgXfYTzw6o2,6,98,incongruent,1.0,True,1,423.5,0.4235,빨강,blue
80UJMJbCOMgs6YVpsMgXfYTzw6o2,6,99,congruent,0.0,True,1,378.1999999992549,0.3781999999992549,파랑,blue
80UJMJbCOMgs6YVpsMgXfYTzw6o2,6,100,neutral,0.5,True,1,356.5,0.3565,학교,blue
80UJMJbCOMgs6YVpsMgXfYTzw6o2,6,101,neutral,0.5,True,1,703.5999999996275,0.7035999999996275,가방,green
80UJMJbCOMgs6YVpsMgXfYTzw6o2,6,102,neutral,0.5,True,1,801.0,0.801,학교,yellow
80UJMJbCOMgs6YVpsMgXfYTzw6o2,6,103,incongruent,1.0,True,1,678.6999999992549,0.6786999999992549,노랑,green
80UJMJbCOMgs6YVpsMgXfYTzw6o2,6,104,incongruent,1.0,True,1,689.5,0.6895,파랑,red
80UJMJbCOMgs6YVpsMgXfYTzw6o2,6,105,congruent,0.0,True,1,644.0999999996275,0.6440999999996275,노랑,yellow
80UJMJbCOMgs6YVpsMgXfYTzw6o2,6,106,congruent,0.0,True,1,581.0,0.581,파랑,blue
80UJMJbCOMgs6YVpsMgXfYTzw6o2,6,107,neutral,0.5,True,1,953.10000000149,0.95310000000149,가방,yellow
rUuJv5gl7dWVo7UPQWMx4bohxhK2,66,0,incongruent,1.0,True,1,1619.2000000000698,1.61920000000007,빨강,yellow
rUuJv5gl7dWVo7UPQWMx4bohxhK2,66,1,incongruent,1.0,True,1,1151.0,1.151,파랑,green
rUuJv5gl7dWVo7UPQWMx4bohxhK2,66,2,congruent,0.0,True,1,864.1999999999534,0.8641999999999534,초록,green
rUuJv5gl7dWVo7UPQWMx4bohxhK2,66,3,incongruent,1.0,True,1,1227.4000000000233,1.2274000000000234,초록,yellow
rUuJv5gl7dWVo7UPQWMx4bohxhK2,66,4,incongruent,1.0,True,1,2514.0,2.514,빨강,green
rUuJv5gl7dWVo7UPQWMx4bohxhK2,66,5,neutral,0.5,True,1,2249.79999999993,2.2497999999999303,가방,red
rUuJv5gl7dWVo7UPQWMx4bohxhK2,66,6,neutral,0.5,True,1,1109.0,1.109,기차,blue
rUuJv5gl7dWVo7UPQWMx4bohxhK2,66,7,congruent,0.0,True,1,916.2999999999302,0.9162999999999302,초록,green
rUuJv5gl7dWVo7UPQWMx4bohxhK2,66,8,congruent,0.0,True,1,1064.0,1.064,파랑,blue
rUuJv5gl7dWVo7UPQWMx4bohxhK2,66,9,incongruent,1.0,True,1,1208.2999999999302,1.2082999999999302,초록,blue
rUuJv5gl7dWVo7UPQWMx4bohxhK2,66,10,incongruent,1.0,True,1,1116.4000000000233,1.1164000000000234,노랑,blue
rUuJv5gl7dWVo7UPQWMx4bohxhK2,66,11,congruent,0.0,True,1,1566.3000000000466,1.5663000000000467,노랑,yellow
rUuJv5gl7dWVo7UPQWMx4bohxhK2,66,12,congruent,0.0,True,1,1101.5,1.1015,빨강,red
rUuJv5gl7dWVo7UPQWMx4bohxhK2,66,13,neutral,0.5,True,1,1953.5,1.9535,학교,yellow
rUuJv5gl7dWVo7UPQWMx4bohxhK2,66,14,congruent,0.0,True,1,1217.4000000000233,1.2174000000000234,빨강,red
rUuJv5gl7dWVo7UPQWMx4bohxhK2,66,15,incongruent,1.0,True,1,1334.0,1.334,파랑,green
rUuJv5gl7dWVo7UPQWMx4bohxhK2,66,16,incongruent,1.0,True,1,1101.6999999999534,1.1016999999999535,노랑,green
rUuJv5gl7dWVo7UPQWMx4bohxhK2,66,17,incongruent,1.0,True,1,1152.9000000000233,1.1529000000000234,노랑,red
rUuJv5gl7dWVo7UPQWMx4bohxhK2,66,18,congruent,0.0,True,1,1995.9000000000235,1.9959000000000235,파랑,blue
rUuJv5gl7dWVo7UPQWMx4bohxhK2,66,19,incongruent,1.0,True,1,1275.5999999999767,1.2755999999999768,빨강,yellow
rUuJv5gl7dWVo7UPQWMx4bohxhK2,66,20,incongruent,1.0,True,1,1634.6999999999534,1.6346999999999534,노랑,red
rUuJv5gl7dWVo7UPQWMx4bohxhK2,66,21,congruent,0.0,True,1,926.5999999999768,0.9265999999999768,초록,green
rUuJv5gl7dWVo7UPQWMx4bohxhK2,66,22,neutral,0.5,True,1,1123.0999999999767,1.1230999999999767,가방,blue
rUuJv5gl7dWVo7UPQWMx4bohxhK2,66,23,congruent,0.0,True,1,954.5999999999768,0.9545999999999768,노랑,yellow
rUuJv5gl7dWVo7UPQWMx4bohxhK2,66,24,neutral,0.5,True,1,901.9000000000232,0.9019000000000231,가방,green
rUuJv5gl7dWVo7UPQWMx4bohxhK2,66,25,incongruent,1.0,True,1,2764.0,2.764,초록,red
rUuJv5gl7dWVo7UPQWMx4bohxhK2,66,26,congruent,0.0,True,1,869.5,0.8695,빨강,red
rUuJv5gl7dWVo7UPQWMx4bohxhK2,66,27,congruent,0.0,True,1,1023.0,1.023,파랑,blue
rUuJv5gl7dWVo7UPQWMx4bohxhK2,66,28,congruent,0.0,True,1,1628.5,1.6285,빨강,red
rUuJv5gl7dWVo7UPQWMx4bohxhK2,66,29,incongruent,1.0,True,1,1280.2999999999302,1.28029999999993,빨강,yellow
rUuJv5gl7dWVo7UPQWMx4bohxhK2,66,30,neutral,0.5,True,1,960.1999999999534,0.9601999999999534,가방,red
rUuJv5gl7dWVo7UPQWMx4bohxhK2,66,31,incongruent,1.0,True,1,980.6999999999534,0.9806999999999534,초록,blue
rUuJv5gl7dWVo7UPQWMx4bohxhK2,66,32,neutral,0.5,True,1,1050.5,1.0505,기차,red
rUuJv5gl7dWVo7UPQWMx4bohxhK2,66,33,neutral,0.5,True,1,1385.5,1.3855,기차,blue
rUuJv5gl7dWVo7UPQWMx4bohxhK2,66,34,congruent,0.0,True,1,987.3999999999068,0.9873999999999068,노랑,yellow
rUuJv5gl7dWVo7UPQWMx4bohxhK2,66,35,congruent,0.0,True,1,878.3000000000466,0.8783000000000466,파랑,blue
rUuJv5gl7dWVo7UPQWMx4bohxhK2,66,36,neutral,0.5,True,1,1411.5,1.4115,학교,green
rUuJv5gl7dWVo7UPQWMx4bohxhK2,66,37,congruent,0.0,True,1,1436.0,1.436,빨강,red
rUuJv5gl7dWVo7UPQWMx4bohxhK2,66,38,incongruent,1.0,True,1,2315.199999999953,2.315199999999953,초록,yellow
rUuJv5gl7dWVo7UPQWMx4bohxhK2,66,39,congruent,0.0,True,1,1230.7999999999302,1.2307999999999302,파랑,blue
rUuJv5gl7dWVo7UPQWMx4bohxhK2,66,40,incongruent,1.0,True,1,1391.5,1.3915,파랑,red
rUuJv5gl7dWVo7UPQWMx4bohxhK2,66,41,incongruent,1.0,True,1,902.5,0.9025,노랑,red
rUuJv5gl7dWVo7UPQWMx4bohxhK2,66,42,incongruent,1.0,True,1,755.6000000000931,0.7556000000000931,파랑,green
rUuJv5gl7dWVo7UPQWMx4bohxhK2,66,43,neutral,0.5,True,1,555.4000000000233,0.5554000000000233,학교,green
rUuJv5gl7dWVo7UPQWMx4bohxhK2,66,44,neutral,0.5,True,1,942.4000000000232,0.9424000000000232,가방,blue
rUuJv5gl7dWVo7UPQWMx4bohxhK2,66,45,incongruent,1.0,True,1,1699.5999999999767,1.6995999999999767,파랑,yellow
rUuJv5gl7dWVo7UPQWMx4bohxhK2,66,46,neutral,0.5,True,1,1017.8999999999068,1.0178999999999068,학교,blue
rUuJv5gl7dWVo7UPQWMx4bohxhK2,66,47,congruent,0.0,True,1,835.4000000000233,0.8354000000000232,빨강,red
rUuJv5gl7dWVo7UPQWMx4bohxhK2,66,48,congruent,0.0,True,1,1090.0,1.09,파랑,blue
rUuJv5gl7dWVo7UPQWMx4bohxhK2,66,49,incongruent,1.0,True,1,1531.0,1.531,노랑,blue
rUuJv5gl7dWVo7UPQWMx4bohxhK2,66,50,congruent,0.0,True,1,1578.0,1.578,노랑,yellow
rUuJv5gl7dWVo7UPQWMx4bohxhK2,66,51,neutral,0.5,True,1,1483.4000000000233,1.4834000000000234,가방,green
rUuJv5gl7dWVo7UPQWMx4bohxhK2,66,52,neutral,0.5,True,1,1586.6000000000931,1.586600000000093,기차,green
rUuJv5gl7dWVo7UPQWMx4bohxhK2,66,53,congruent,0.0,True,1,933.5,0.9335,노랑,yellow
rUuJv5gl7dWVo7UPQWMx4bohxhK2,66,54,congruent,0.0,True,1,1055.3000000000466,1.0553000000000465,파랑,blue
rUuJv5gl7dWVo7UPQWMx4bohxhK2,66,55,neutral,0.5,True,1,2040.4000000000235,2.0404000000000235,가방,yellow
rUuJv5gl7dWVo7UPQWMx4bohxhK2,66,56,congruent,0.0,True,1,922.5,0.9225,초록,green
rUuJv5gl7dWVo7UPQWMx4bohxhK2,66,57,neutral,0.5,True,1,1957.6999999999532,1.9576999999999531,가방,yellow
rUuJv5gl7dWVo7UPQWMx4bohxhK2,66,58,incongruent,1.0,True,1,2374.20000000007,2.37420000000007,빨강,green
rUuJv5gl7dWVo7UPQWMx4bohxhK2,66,59,neutral,0.5,True,1,1494.0999999999767,1.4940999999999767,가방,yellow
rUuJv5gl7dWVo7UPQWMx4bohxhK2,66,60,neutral,0.5,True,1,1186.7999999999302,1.1867999999999301,가방,green
rUuJv5gl7dWVo7UPQWMx4bohxhK2,66,61,neutral,0.5,True,1,2291.4000000000237,2.291400000000024,기차,red
rUuJv5gl7dWVo7UPQWMx4bohxhK2,66,62,congruent,0.0,True,1,1158.0,1.158,초록,green
rUuJv5gl7dWVo7UPQWMx4bohxhK2,66,63,neutral,0.5,True,1,1944.0,1.944,기차,yellow
rUuJv5gl7dWVo7UPQWMx4bohxhK2,66,64,congruent,0.0,True,1,680.0,0.68,파랑,blue
rUuJv5gl7dWVo7UPQWMx4bohxhK2,66,65,congruent,0.0,True,1,676.4000000000233,0.6764000000000233,초록,green
rUuJv5gl7dWVo7UPQWMx4bohxhK2,66,66,congruent,0.0,True,1,719.9000000000233,0.7199000000000233,빨강,red
rUuJv5gl7dWVo7UPQWMx4bohxhK2,66,67,congruent,0.0,True,1,903.0999999999768,0.9030999999999768,노랑,yellow
rUuJv5gl7dWVo7UPQWMx4bohxhK2,66,69,incongruent,1.0,True,1,1080.5,1.0805,빨강,green
rUuJv5gl7dWVo7UPQWMx4bohxhK2,66,70,congruent,0.0,True,1,1260.3000000000466,1.2603000000000466,노랑,yellow
rUuJv5gl7dWVo7UPQWMx4bohxhK2,66,71,incongruent,1.0,False,0,893.9000000000233,0.8939000000000232,파랑,yellow
rUuJv5gl7dWVo7UPQWMx4bohxhK2,66,73,neutral,0.5,True,1,1646.5,1.6465,기차,yellow
rUuJv5gl7dWVo7UPQWMx4bohxhK2,66,74,neutral,0.5,True,1,852.1999999999534,0.8521999999999534,학교,green
rUuJv5gl7dWVo7UPQWMx4bohxhK2,66,75,neutral,0.5,True,1,904.2999999999302,0.9042999999999302,학교,blue
rUuJv5gl7dWVo7UPQWMx4bohxhK2,66,76,incongruent,1.0,True,1,667.1999999999534,0.6671999999999534,빨강,blue
rUuJv5gl7dWVo7UPQWMx4bohxhK2,66,77,incongruent,1.0,True,1,1222.6000000000931,1.2226000000000932,초록,blue
rUuJv5gl7dWVo7UPQWMx4bohxhK2,66,78,neutral,0.5,True,1,1708.0,1.708,학교,yellow
rUuJv5gl7dWVo7UPQWMx4bohxhK2,66,79,incongruent,1.0,True,1,1071.3999999999069,1.0713999999999069,노랑,green
rUuJv5gl7dWVo7UPQWMx4bohxhK2,66,80,congruent,0.0,True,1,1543.1999999999534,1.5431999999999535,노랑,yellow
rUuJv5gl7dWVo7UPQWMx4bohxhK2,66,81,neutral,0.5,True,1,1763.4000000000233,1.7634000000000234,기차,blue
rUuJv5gl7dWVo7UPQWMx4bohxhK2,66,82,neutral,0.5,True,1,1355.0999999999767,1.3550999999999767,학교,red
rUuJv5gl7dWVo7UPQWMx4bohxhK2,66,83,congruent,0.0,True,1,700.8000000000466,0.7008000000000466,빨강,red
rUuJv5gl7dWVo7UPQWMx4bohxhK2,66,84,neutral,0.5,True,1,543.8000000000466,0.5438000000000466,학교,red
rUuJv5gl7dWVo7UPQWMx4bohxhK2,66,85,incongruent,1.0,True,1,2072.70000000007,2.07270000000007,노랑,blue
rUuJv5gl7dWVo7UPQWMx4bohxhK2,66,86,congruent,0.0,True,1,947.5,0.9475,빨강,red
rUuJv5gl7dWVo7UPQWMx4bohxhK2,66,87,incongruent,1.0,True,1,1781.8999999999069,1.7818999999999068,파랑,yellow
rUuJv5gl7dWVo7UPQWMx4bohxhK2,66,88,neutral,0.5,True,1,1036.3999999999069,1.036399999999907,기차,green
rUuJv5gl7dWVo7UPQWMx4bohxhK2,66,89,congruent,0.0,True,1,906.5,0.9065,초록,green
rUuJv5gl7dWVo7UPQWMx4bohxhK2,66,90,incongruent,1.0,True,1,1270.3000000000466,1.2703000000000466,초록,yellow
rUuJv5gl7dWVo7UPQWMx4bohxhK2,66,91,neutral,0.5,True,1,1016.9000000000232,1.0169000000000232,기차,red
rUuJv5gl7dWVo7UPQWMx4bohxhK2,66,92,congruent,0.0,True,1,1488.5999999999767,1.4885999999999766,노랑,yellow
rUuJv5gl7dWVo7UPQWMx4bohxhK2,66,93,neutral,0.5,True,1,1655.3999999999069,1.655399999999907,기차,yellow
rUuJv5gl7dWVo7UPQWMx4bohxhK2,66,94,congruent,0.0,True,1,810.2000000000698,0.8102000000000699,파랑,blue
rUuJv5gl7dWVo7UPQWMx4bohxhK2,66,95,incongruent,1.0,True,1,2147.3000000000466,2.1473000000000466,빨강,blue
rUuJv5gl7dWVo7UPQWMx4bohxhK2,66,96,neutral,0.5,True,1,1897.5999999999767,1.8975999999999766,학교,red
rUuJv5gl7dWVo7UPQWMx4bohxhK2,66,97,incongruent,1.0,True,1,2087.5999999999767,2.0875999999999766,노랑,green
rUuJv5gl7dWVo7UPQWMx4bohxhK2,66,98,neutral,0.5,True,1,1496.1999999999534,1.4961999999999533,학교,yellow
rUuJv5gl7dWVo7UPQWMx4bohxhK2,66,99,neutral,0.5,True,1,1244.7999999999302,1.2447999999999302,학교,blue
rUuJv5gl7dWVo7UPQWMx4bohxhK2,66,100,neutral,0.5,True,1,1497.0,1.497,가방,red
rUuJv5gl7dWVo7UPQWMx4bohxhK2,66,101,incongruent,1.0,True,1,1622.2000000000698,1.6222000000000698,파랑,red
rUuJv5gl7dWVo7UPQWMx4bohxhK2,66,102,congruent,0.0,True,1,935.0,0.935,초록,green
rUuJv5gl7dWVo7UPQWMx4bohxhK2,66,103,incongruent,1.0,True,1,1274.5999999999767,1.2745999999999766,초록,red
rUuJv5gl7dWVo7UPQWMx4bohxhK2,66,104,incongruent,1.0,True,1,1169.3000000000466,1.1693000000000466,빨강,blue
rUuJv5gl7dWVo7UPQWMx4bohxhK2,66,105,congruent,0.0,True,1,844.2000000000698,0.8442000000000699,초록,green
rUuJv5gl7dWVo7UPQWMx4bohxhK2,66,106,neutral,0.5,True,1,1602.0,1.602,가방,blue
rUuJv5gl7dWVo7UPQWMx4bohxhK2,66,107,incongruent,1.0,True,1,1199.9000000000233,1.1999000000000233,파랑,red
xyAILKfYP2M8GqAai11x6NT7IcP2,80,0,congruent,0.0,True,1,1008.7000000001864,1.0087000000001864,노랑,yellow
xyAILKfYP2M8GqAai11x6NT7IcP2,80,1,incongruent,1.0,True,1,732.6999999997206,0.7326999999997206,파랑,yellow
xyAILKfYP2M8GqAai11x6NT7IcP2,80,2,neutral,0.5,True,1,757.8000000002794,0.7578000000002794,가방,blue
xyAILKfYP2M8GqAai11x6NT7IcP2,80,3,congruent,0.0,True,1,829.0,0.829,파랑,blue
xyAILKfYP2M8GqAai11x6NT7IcP2,80,4,congruent,0.0,True,1,840.6000000000931,0.8406000000000932,초록,green
xyAILKfYP2M8GqAai11x6NT7IcP2,80,5,congruent,0.0,True,1,862.5,0.8625,노랑,yellow
xyAILKfYP2M8GqAai11x6NT7IcP2,80,6,incongruent,1.0,True,1,1201.6999999997206,1.2016999999997207,노랑,green
xyAILKfYP2M8GqAai11x6NT7IcP2,80,7,neutral,0.5,True,1,1015.2999999998136,1.0152999999998136,가방,yellow
xyAILKfYP2M8GqAai11x6NT7IcP2,80,8,neutral,0.5,True,1,1033.1999999997206,1.0331999999997206,학교,blue
xyAILKfYP2M8GqAai11x6NT7IcP2,80,9,incongruent,1.0,True,1,1214.7999999998135,1.2147999999998136,파랑,green
xyAILKfYP2M8GqAai11x6NT7IcP2,80,10,neutral,0.5,True,1,1198.2000000001865,1.1982000000001864,학교,red
xyAILKfYP2M8GqAai11x6NT7IcP2,80,11,neutral,0.5,True,1,884.3999999999069,0.8843999999999068,학교,green
xyAILKfYP2M8GqAai11x6NT7IcP2,80,12,congruent,0.0,True,1,1091.6999999997206,1.0916999999997206,노랑,yellow
xyAILKfYP2M8GqAai11x6NT7IcP2,80,13,incongruent,1.0,True,1,1134.8999999999069,1.1348999999999068,빨강,blue
xyAILKfYP2M8GqAai11x6NT7IcP2,80,14,neutral,0.5,True,1,968.6999999997206,0.9686999999997206,학교,blue
xyAILKfYP2M8GqAai11x6NT7IcP2,80,15,neutral,0.5,True,1,790.8999999999069,0.7908999999999069,가방,yellow
xyAILKfYP2M8GqAai11x6NT7IcP2,80,16,incongruent,1.0,True,1,1120.7999999998135,1.1207999999998135,노랑,red
xyAILKfYP2M8GqAai11x6NT7IcP2,80,17,congruent,0.0,True,1,811.8999999999069,0.8118999999999069,노랑,yellow
xyAILKfYP2M8GqAai11x6NT7IcP2,80,18,neutral,0.5,True,1,642.8999999999069,0.6428999999999069,기차,yellow
xyAILKfYP2M8GqAai11x6NT7IcP2,80,19,congruent,0.0,True,1,706.1000000000931,0.7061000000000931,초록,green
xyAILKfYP2M8GqAai11x6NT7IcP2,80,20,congruent,0.0,True,1,803.3999999999069,0.8033999999999069,파랑,blue
xyAILKfYP2M8GqAai11x6NT7IcP2,80,21,incongruent,1.0,True,1,555.8000000002794,0.5558000000002794,초록,blue
xyAILKfYP2M8GqAai11x6NT7IcP2,80,22,incongruent,1.0,True,1,1042.7999999998135,1.0427999999998134,파랑,red
xyAILKfYP2M8GqAai11x6NT7IcP2,80,23,congruent,0.0,True,1,840.8000000002794,0.8408000000002794,노랑,yellow
xyAILKfYP2M8GqAai11x6NT7IcP2,80,24,incongruent,1.0,True,1,1183.3000000002794,1.1833000000002794,파랑,red
xyAILKfYP2M8GqAai11x6NT7IcP2,80,25,congruent,0.0,True,1,1242.2999999998135,1.2422999999998134,초록,green
xyAILKfYP2M8GqAai11x6NT7IcP2,80,26,congruent,0.0,True,1,852.8999999999069,0.8528999999999068,노랑,yellow
xyAILKfYP2M8GqAai11x6NT7IcP2,80,27,incongruent,1.0,True,1,1202.0,1.202,파랑,green
xyAILKfYP2M8GqAai11x6NT7IcP2,80,28,incongruent,1.0,True,1,909.3999999999068,0.9093999999999067,빨강,green
xyAILKfYP2M8GqAai11x6NT7IcP2,80,29,congruent,0.0,True,1,861.6999999997206,0.8616999999997206,파랑,blue
xyAILKfYP2M8GqAai11x6NT7IcP2,80,30,incongruent,1.0,True,1,673.2999999998137,0.6732999999998137,빨강,yellow
xyAILKfYP2M8GqAai11x6NT7IcP2,80,31,incongruent,1.0,True,1,669.3999999999069,0.6693999999999068,파랑,yellow
xyAILKfYP2M8GqAai11x6NT7IcP2,80,32,congruent,0.0,True,1,1064.0,1.064,빨강,red
xyAILKfYP2M8GqAai11x6NT7IcP2,80,33,incongruent,1.0,True,1,821.2000000001863,0.8212000000001862,빨강,yellow
xyAILKfYP2M8GqAai11x6NT7IcP2,80,34,neutral,0.5,True,1,682.5,0.6825,학교,yellow
xyAILKfYP2M8GqAai11x6NT7IcP2,80,35,neutral,0.5,True,1,1468.5,1.4685,가방,blue
xyAILKfYP2M8GqAai11x6NT7IcP2,80,36,congruent,0.0,True,1,1406.7000000001865,1.4067000000001866,빨강,red
xyAILKfYP2M8GqAai11x6NT7IcP2,80,37,incongruent,1.0,True,1,1228.6999999997206,1.2286999999997206,빨강,green
xyAILKfYP2M8GqAai11x6NT7IcP2,80,38,incongruent,1.0,True,1,1260.7000000001865,1.2607000000001864,초록,yellow
xyAILKfYP2M8GqAai11x6NT7IcP2,80,39,congruent,0.0,True,1,1004.5999999996276,1.0045999999996276,빨강,red
xyAILKfYP2M8GqAai11x6NT7IcP2,80,40,congruent,0.0,True,1,1291.7999999998135,1.2917999999998135,초록,green
xyAILKfYP2M8GqAai11x6NT7IcP2,80,41,neutral,0.5,True,1,1093.1999999997206,1.0931999999997206,기차,blue
xyAILKfYP2M8GqAai11x6NT7IcP2,80,42,congruent,0.0,True,1,1115.7999999998135,1.1157999999998136,빨강,red
xyAILKfYP2M8GqAai11x6NT7IcP2,80,43,incongruent,1.0,True,1,1314.7000000001865,1.3147000000001865,노랑,green
xyAILKfYP2M8GqAai11x6NT7IcP2,80,44,congruent,0.0,True,1,783.6999999997206,0.7836999999997206,초록,green
xyAILKfYP2M8GqAai11x6NT7IcP2,80,45,neutral,0.5,True,1,823.5,0.8235,기차,green
xyAILKfYP2M8GqAai11x6NT7IcP2,80,46,incongruent,1.0,True,1,993.8000000002794,0.9938000000002793,노랑,red
xyAILKfYP2M8GqAai11x6NT7IcP2,80,47,neutral,0.5,True,1,671.2000000001863,0.6712000000001863,학교,red
xyAILKfYP2M8GqAai11x6NT7IcP2,80,48,incongruent,1.0,True,1,620.0999999996275,0.6200999999996275,초록,red
xyAILKfYP2M8GqAai11x6NT7IcP2,80,49,congruent,0.0,True,1,725.0,0.725,파랑,blue
xyAILKfYP2M8GqAai11x6NT7IcP2,80,50,congruent,0.0,True,1,903.2999999998136,0.9032999999998136,노랑,yellow
xyAILKfYP2M8GqAai11x6NT7IcP2,80,51,incongruent,1.0,True,1,1317.2999999998135,1.3172999999998134,노랑,blue
xyAILKfYP2M8GqAai11x6NT7IcP2,80,52,incongruent,1.0,True,1,1013.8999999999068,1.0138999999999068,파랑,red
xyAILKfYP2M8GqAai11x6NT7IcP2,80,53,neutral,0.5,True,1,703.2000000001863,0.7032000000001862,기차,red
xyAILKfYP2M8GqAai11x6NT7IcP2,80,54,congruent,0.0,True,1,621.6000000000931,0.6216000000000931,초록,green
xyAILKfYP2M8GqAai11x6NT7IcP2,80,55,incongruent,1.0,True,1,829.3000000002794,0.8293000000002794,빨강,blue
xyAILKfYP2M8GqAai11x6NT7IcP2,80,56,neutral,0.5,True,1,657.7000000001863,0.6577000000001862,기차,yellow
xyAILKfYP2M8GqAai11x6NT7IcP2,80,57,incongruent,1.0,True,1,846.7000000001863,0.8467000000001863,노랑,green
xyAILKfYP2M8GqAai11x6NT7IcP2,80,58,neutral,0.5,True,1,718.2999999998137,0.7182999999998138,기차,blue
xyAILKfYP2M8GqAai11x6NT7IcP2,80,59,neutral,0.5,True,1,736.8000000002794,0.7368000000002793,가방,red
xyAILKfYP2M8GqAai11x6NT7IcP2,80,60,incongruent,1.0,True,1,1817.5999999996277,1.8175999999996277,파랑,yellow
xyAILKfYP2M8GqAai11x6NT7IcP2,80,61,congruent,0.0,True,1,1020.7000000001864,1.0207000000001865,파랑,blue
xyAILKfYP2M8GqAai11x6NT7IcP2,80,62,incongruent,1.0,True,1,1311.6999999997206,1.3116999999997205,파랑,green
xyAILKfYP2M8GqAai11x6NT7IcP2,80,63,incongruent,1.0,True,1,1144.2000000001865,1.1442000000001864,노랑,red
xyAILKfYP2M8GqAai11x6NT7IcP2,80,64,congruent,0.0,True,1,1297.6000000000931,1.2976000000000931,파랑,blue
xyAILKfYP2M8GqAai11x6NT7IcP2,80,65,incongruent,1.0,True,1,944.8999999999068,0.9448999999999067,빨강,yellow
xyAILKfYP2M8GqAai11x6NT7IcP2,80,66,congruent,0.0,True,1,921.3999999999068,0.9213999999999067,초록,green
xyAILKfYP2M8GqAai11x6NT7IcP2,80,67,neutral,0.5,True,1,725.5,0.7255,가방,red
xyAILKfYP2M8GqAai11x6NT7IcP2,80,68,incongruent,1.0,True,1,1433.3999999999069,1.433399999999907,노랑,blue
xyAILKfYP2M8GqAai11x6NT7IcP2,80,69,congruent,0.0,True,1,725.3000000002794,0.7253000000002794,빨강,red
xyAILKfYP2M8GqAai11x6NT7IcP2,80,70,neutral,0.5,True,1,811.6999999997206,0.8116999999997206,기차,green
xyAILKfYP2M8GqAai11x6NT7IcP2,80,71,neutral,0.5,True,1,938.0,0.938,가방,yellow
xyAILKfYP2M8GqAai11x6NT7IcP2,80,72,neutral,0.5,True,1,1395.0,1.395,가방,green
xyAILKfYP2M8GqAai11x6NT7IcP2,80,73,neutral,0.5,True,1,612.7999999998137,0.6127999999998137,기차,green
xyAILKfYP2M8GqAai11x6NT7IcP2,80,74,incongruent,1.0,True,1,926.0,0.926,초록,red
xyAILKfYP2M8GqAai11x6NT7IcP2,80,75,neutral,0.5,True,1,711.5,0.7115,가방,green
xyAILKfYP2M8GqAai11x6NT7IcP2,80,76,neutral,0.5,True,1,846.6000000000931,0.8466000000000932,학교,blue
xyAILKfYP2M8GqAai11x6NT7IcP2,80,77,congruent,0.0,True,1,710.8999999999069,0.7108999999999068,파랑,blue
xyAILKfYP2M8GqAai11x6NT7IcP2,80,78,incongruent,1.0,True,1,2670.5,2.6705,노랑,blue
xyAILKfYP2M8GqAai11x6NT7IcP2,80,79,congruent,0.0,True,1,1615.0999999996277,1.6150999999996276,빨강,red
xyAILKfYP2M8GqAai11x6NT7IcP2,80,80,incongruent,1.0,True,1,1609.5,1.6095,초록,blue
xyAILKfYP2M8GqAai11x6NT7IcP2,80,81,congruent,0.0,True,1,946.8999999999068,0.9468999999999067,빨강,red
xyAILKfYP2M8GqAai11x6NT7IcP2,80,82,congruent,0.0,True,1,1206.6000000000931,1.2066000000000932,파랑,blue
xyAILKfYP2M8GqAai11x6NT7IcP2,80,83,neutral,0.5,True,1,835.8999999999069,0.8358999999999068,학교,yellow
xyAILKfYP2M8GqAai11x6NT7IcP2,80,84,incongruent,1.0,True,1,2162.2000000001863,2.1622000000001864,초록,blue
xyAILKfYP2M8GqAai11x6NT7IcP2,80,85,congruent,0.0,True,1,901.5,0.9015,초록,green
xyAILKfYP2M8GqAai11x6NT7IcP2,80,86,neutral,0.5,True,1,1155.2999999998135,1.1552999999998135,가방,green
xyAILKfYP2M8GqAai11x6NT7IcP2,80,87,incongruent,1.0,True,1,1282.1000000000931,1.282100000000093,빨강,blue
xyAILKfYP2M8GqAai11x6NT7IcP2,80,88,congruent,0.0,True,1,831.4000000003725,0.8314000000003725,노랑,yellow
xyAILKfYP2M8GqAai11x6NT7IcP2,80,89,neutral,0.5,True,1,1037.7999999998135,1.0377999999998135,기차,red
xyAILKfYP2M8GqAai11x6NT7IcP2,80,90,congruent,0.0,True,1,905.0,0.905,빨강,red
xyAILKfYP2M8GqAai11x6NT7IcP2,80,91,neutral,0.5,True,1,1001.1000000000932,1.0011000000000931,기차,red
xyAILKfYP2M8GqAai11x6NT7IcP2,80,92,neutral,0.5,True,1,776.8999999999069,0.7768999999999069,학교,red
xyAILKfYP2M8GqAai11x6NT7IcP2,80,93,congruent,0.0,True,1,705.6000000000931,0.7056000000000932,빨강,red
xyAILKfYP2M8GqAai11x6NT7IcP2,80,94,neutral,0.5,True,1,1200.6999999997206,1.2006999999997205,학교,yellow
xyAILKfYP2M8GqAai11x6NT7IcP2,80,95,incongruent,1.0,True,1,1154.0,1.154,초록,yellow
xyAILKfYP2M8GqAai11x6NT7IcP2,80,96,neutral,0.5,True,1,877.3000000002794,0.8773000000002794,기차,yellow
xyAILKfYP2M8GqAai11x6NT7IcP2,80,97,neutral,0.5,True,1,1236.3999999999069,1.236399999999907,기차,blue
xyAILKfYP2M8GqAai11x6NT7IcP2,80,98,neutral,0.5,True,1,689.6999999997206,0.6896999999997206,학교,green
xyAILKfYP2M8GqAai11x6NT7IcP2,80,99,neutral,0.5,True,1,820.2000000001863,0.8202000000001862,가방,red
xyAILKfYP2M8GqAai11x6NT7IcP2,80,100,incongruent,1.0,True,1,653.6000000000931,0.6536000000000931,초록,yellow
xyAILKfYP2M8GqAai11x6NT7IcP2,80,101,congruent,0.0,True,1,598.8000000002794,0.5988000000002794,노랑,yellow
xyAILKfYP2M8GqAai11x6NT7IcP2,80,102,congruent,0.0,True,1,806.6000000000931,0.8066000000000931,파랑,blue
xyAILKfYP2M8GqAai11x6NT7IcP2,80,103,neutral,0.5,True,1,588.0,0.588,가방,blue
xyAILKfYP2M8GqAai11x6NT7IcP2,80,104,congruent,0.0,True,1,663.7000000001863,0.6637000000001863,초록,green
xyAILKfYP2M8GqAai11x6NT7IcP2,80,105,neutral,0.5,True,1,477.7000000001863,0.4777000000001863,학교,green
xyAILKfYP2M8GqAai11x6NT7IcP2,80,106,incongruent,1.0,True,1,553.8000000002794,0.5538000000002794,빨강,green
xyAILKfYP2M8GqAai11x6NT7IcP2,80,107,incongruent,1.0,True,1,1321.8000000002794,1.3218000000002794,초록,red
pcbRW89vVJcviD87V3uxyG4I9st2,63,0,incongruent,1.0,True,1,1145.6999999999534,1.1456999999999535,노랑,blue
pcbRW89vVJcviD87V3uxyG4I9st2,63,1,incongruent,1.0,True,1,1036.1999999999534,1.0361999999999534,파랑,red
pcbRW89vVJcviD87V3uxyG4I9st2,63,2,neutral,0.5,True,1,934.6999999999534,0.9346999999999535,학교,blue
pcbRW89vVJcviD87V3uxyG4I9st2,63,3,incongruent,1.0,True,1,1299.5,1.2995,초록,blue
pcbRW89vVJcviD87V3uxyG4I9st2,63,4,neutral,0.5,True,1,953.5999999999768,0.9535999999999768,기차,red
pcbRW89vVJcviD87V3uxyG4I9st2,63,5,incongruent,1.0,True,1,921.0999999999768,0.9210999999999768,노랑,green
pcbRW89vVJcviD87V3uxyG4I9st2,63,6,incongruent,1.0,True,1,816.6999999999534,0.8166999999999535,노랑,red
pcbRW89vVJcviD87V3uxyG4I9st2,63,7,incongruent,1.0,True,1,685.5,0.6855,빨강,yellow
pcbRW89vVJcviD87V3uxyG4I9st2,63,8,congruent,0.0,True,1,894.8999999999069,0.8948999999999069,빨강,red
pcbRW89vVJcviD87V3uxyG4I9st2,63,9,incongruent,1.0,True,1,730.5999999999767,0.7305999999999767,노랑,blue
pcbRW89vVJcviD87V3uxyG4I9st2,63,10,congruent,0.0,True,1,682.0,0.682,초록,green
pcbRW89vVJcviD87V3uxyG4I9st2,63,11,neutral,0.5,True,1,1041.6000000000931,1.0416000000000931,가방,blue
pcbRW89vVJcviD87V3uxyG4I9st2,63,12,incongruent,1.0,True,1,770.7999999999302,0.7707999999999301,빨강,green
pcbRW89vVJcviD87V3uxyG4I9st2,63,13,congruent,0.0,True,1,606.9000000000233,0.6069000000000233,빨강,red
pcbRW89vVJcviD87V3uxyG4I9st2,63,14,congruent,0.0,True,1,780.9000000000233,0.7809000000000232,파랑,blue
pcbRW89vVJcviD87V3uxyG4I9st2,63,15,neutral,0.5,False,0,608.0999999999767,0.6080999999999768,기차,blue
pcbRW89vVJcviD87V3uxyG4I9st2,63,16,incongruent,1.0,True,1,1297.0999999999767,1.2970999999999768,노랑,red
pcbRW89vVJcviD87V3uxyG4I9st2,63,17,neutral,0.5,True,1,712.1999999999534,0.7121999999999534,학교,red
pcbRW89vVJcviD87V3uxyG4I9st2,63,18,congruent,0.0,True,1,1133.0,1.133,노랑,yellow
pcbRW89vVJcviD87V3uxyG4I9st2,63,19,neutral,0.5,True,1,916.5,0.9165,가방,blue
pcbRW89vVJcviD87V3uxyG4I9st2,63,20,congruent,0.0,True,1,499.5,0.4995,파랑,blue
pcbRW89vVJcviD87V3uxyG4I9st2,63,21,incongruent,1.0,True,1,534.7999999999302,0.5347999999999301,빨강,green
pcbRW89vVJcviD87V3uxyG4I9st2,63,22,incongruent,1.0,True,1,678.0999999999767,0.6780999999999767,빨강,blue
pcbRW89vVJcviD87V3uxyG4I9st2,63,23,congruent,0.0,True,1,581.5,0.5815,초록,green
pcbRW89vVJcviD87V3uxyG4I9st2,63,24,congruent,0.0,True,1,562.8000000000466,0.5628000000000466,파랑,blue
pcbRW89vVJcviD87V3uxyG4I9st2,63,25,incongruent,1.0,True,1,617.5,0.6175,초록,yellow
pcbRW89vVJcviD87V3uxyG4I9st2,63,26,congruent,0.0,True,1,773.6999999999534,0.7736999999999534,노랑,yellow
pcbRW89vVJcviD87V3uxyG4I9st2,63,27,neutral,0.5,True,1,683.8999999999069,0.6838999999999069,가방,green
pcbRW89vVJcviD87V3uxyG4I9st2,63,28,congruent,0.0,True,1,977.4000000000232,0.9774000000000231,노랑,yellow
pcbRW89vVJcviD87V3uxyG4I9st2,63,29,neutral,0.5,True,1,499.5999999999767,0.49959999999997673,기차,yellow
pcbRW89vVJcviD87V3uxyG4I9st2,63,30,neutral,0.5,True,1,602.9000000000233,0.6029000000000233,학교,green
pcbRW89vVJcviD87V3uxyG4I9st2,63,31,congruent,0.0,True,1,476.29999999993015,0.47629999999993017,초록,green
pcbRW89vVJcviD87V3uxyG4I9st2,63,32,incongruent,1.0,True,1,554.4000000000233,0.5544000000000233,파랑,yellow
pcbRW89vVJcviD87V3uxyG4I9st2,63,33,congruent,0.0,True,1,622.0,0.622,노랑,yellow
pcbRW89vVJcviD87V3uxyG4I9st2,63,34,incongruent,1.0,True,1,635.8000000000466,0.6358000000000466,파랑,green
pcbRW89vVJcviD87V3uxyG4I9st2,63,35,congruent,0.0,True,1,773.5999999999767,0.7735999999999768,노랑,yellow
pcbRW89vVJcviD87V3uxyG4I9st2,63,36,incongruent,1.0,True,1,531.7999999999302,0.5317999999999301,초록,red
pcbRW89vVJcviD87V3uxyG4I9st2,63,37,neutral,0.5,True,1,546.4000000000233,0.5464000000000233,가방,red
pcbRW89vVJcviD87V3uxyG4I9st2,63,38,congruent,0.0,True,1,499.19999999995343,0.49919999999995346,빨강,red
pcbRW89vVJcviD87V3uxyG4I9st2,63,39,congruent,0.0,True,1,770.5999999999767,0.7705999999999767,노랑,yellow
pcbRW89vVJcviD87V3uxyG4I9st2,63,40,incongruent,1.0,True,1,609.8000000000466,0.6098000000000465,파랑,yellow
pcbRW89vVJcviD87V3uxyG4I9st2,63,41,neutral,0.5,True,1,637.1999999999534,0.6371999999999535,기차,red
pcbRW89vVJcviD87V3uxyG4I9st2,63,42,congruent,0.0,True,1,542.0,0.542,초록,green
pcbRW89vVJcviD87V3uxyG4I9st2,63,43,incongruent,1.0,True,1,467.0999999999767,0.4670999999999767,노랑,blue
pcbRW89vVJcviD87V3uxyG4I9st2,63,44,incongruent,1.0,True,1,587.5999999999767,0.5875999999999767,파랑,red
pcbRW89vVJcviD87V3uxyG4I9st2,63,45,neutral,0.5,True,1,713.1000000000931,0.7131000000000931,학교,yellow
pcbRW89vVJcviD87V3uxyG4I9st2,63,46,incongruent,1.0,True,1,534.5,0.5345,파랑,yellow
pcbRW89vVJcviD87V3uxyG4I9st2,63,47,congruent,0.0,True,1,546.7000000000698,0.5467000000000698,빨강,red
pcbRW89vVJcviD87V3uxyG4I9st2,63,48,incongruent,1.0,True,1,1069.4000000000233,1.0694000000000232,빨강,blue
pcbRW89vVJcviD87V3uxyG4I9st2,63,49,congruent,0.0,True,1,591.0999999999767,0.5910999999999768,빨강,red
pcbRW89vVJcviD87V3uxyG4I9st2,63,50,neutral,0.5,True,1,531.1999999999534,0.5311999999999535,학교,red
pcbRW89vVJcviD87V3uxyG4I9st2,63,51,incongruent,1.0,True,1,687.2999999999302,0.6872999999999302,초록,red
pcbRW89vVJcviD87V3uxyG4I9st2,63,52,neutral,0.5,True,1,554.9000000000233,0.5549000000000233,기차,blue
pcbRW89vVJcviD87V3uxyG4I9st2,63,53,congruent,0.0,True,1,558.7999999999302,0.5587999999999301,노랑,yellow
pcbRW89vVJcviD87V3uxyG4I9st2,63,54,incongruent,1.0,True,1,506.30000000004657,0.5063000000000466,빨강,green
pcbRW89vVJcviD87V3uxyG4I9st2,63,55,neutral,0.5,True,1,637.6999999999534,0.6376999999999534,가방,yellow
pcbRW89vVJcviD87V3uxyG4I9st2,63,56,neutral,0.5,True,1,942.9000000000232,0.9429000000000232,기차,green
pcbRW89vVJcviD87V3uxyG4I9st2,63,57,incongruent,1.0,True,1,678.0,0.678,초록,yellow
pcbRW89vVJcviD87V3uxyG4I9st2,63,58,incongruent,1.0,True,1,549.1999999999534,0.5491999999999534,파랑,red
pcbRW89vVJcviD87V3uxyG4I9st2,63,59,incongruent,1.0,True,1,808.5,0.8085,초록,yellow
pcbRW89vVJcviD87V3uxyG4I9st2,63,60,congruent,0.0,True,1,432.5999999999767,0.4325999999999767,초록,green
pcbRW89vVJcviD87V3uxyG4I9st2,63,61,neutral,0.5,True,1,649.5,0.6495,기차,yellow
pcbRW89vVJcviD87V3uxyG4I9st2,63,62,neutral,0.5,True,1,514.2999999999302,0.5142999999999301,가방,yellow
pcbRW89vVJcviD87V3uxyG4I9st2,63,63,congruent,0.0,True,1,606.0,0.606,파랑,blue
pcbRW89vVJcviD87V3uxyG4I9st2,63,64,neutral,0.5,True,1,468.19999999995343,0.46819999999995343,학교,blue
pcbRW89vVJcviD87V3uxyG4I9st2,63,65,neutral,0.5,True,1,592.0999999999767,0.5920999999999768,기차,red
pcbRW89vVJcviD87V3uxyG4I9st2,63,66,congruent,0.0,True,1,506.79999999993015,0.5067999999999302,빨강,red
pcbRW89vVJcviD87V3uxyG4I9st2,63,67,neutral,0.5,True,1,627.7999999999302,0.6277999999999302,학교,green
pcbRW89vVJcviD87V3uxyG4I9st2,63,68,incongruent,1.0,True,1,433.0999999999767,0.4330999999999767,노랑,green
pcbRW89vVJcviD87V3uxyG4I9st2,63,69,incongruent,1.0,True,1,525.8999999999069,0.5258999999999069,초록,red
pcbRW89vVJcviD87V3uxyG4I9st2,63,70,congruent,0.0,True,1,698.0999999999767,0.6980999999999767,빨강,red
pcbRW89vVJcviD87V3uxyG4I9st2,63,71,neutral,0.5,True,1,607.5999999999767,0.6075999999999767,학교,blue
pcbRW89vVJcviD87V3uxyG4I9st2,63,72,neutral,0.5,True,1,572.7999999999302,0.5727999999999301,학교,yellow
pcbRW89vVJcviD87V3uxyG4I9st2,63,73,congruent,0.0,True,1,536.0,0.536,초록,green
pcbRW89vVJcviD87V3uxyG4I9st2,63,74,incongruent,1.0,True,1,876.8999999999069,0.8768999999999069,초록,blue
pcbRW89vVJcviD87V3uxyG4I9st2,63,75,neutral,0.5,True,1,623.1999999999534,0.6231999999999535,가방,green
pcbRW89vVJcviD87V3uxyG4I9st2,63,76,congruent,0.0,True,1,665.3000000000466,0.6653000000000465,노랑,yellow
pcbRW89vVJcviD87V3uxyG4I9st2,63,77,incongruent,1.0,True,1,656.9000000000233,0.6569000000000232,빨강,blue
pcbRW89vVJcviD87V3uxyG4I9st2,63,78,congruent,0.0,True,1,450.19999999995343,0.4501999999999534,파랑,blue
pcbRW89vVJcviD87V3uxyG4I9st2,63,79,congruent,0.0,True,1,613.7999999999302,0.6137999999999302,노랑,yellow
pcbRW89vVJcviD87V3uxyG4I9st2,63,80,neutral,0.5,True,1,545.6999999999534,0.5456999999999534,기차,yellow
pcbRW89vVJcviD87V3uxyG4I9st2,63,81,neutral,0.5,True,1,471.70000000006985,0.47170000000006984,가방,yellow
pcbRW89vVJcviD87V3uxyG4I9st2,63,82,neutral,0.5,True,1,440.0999999999767,0.44009999999997673,기차,green
pcbRW89vVJcviD87V3uxyG4I9st2,63,83,incongruent,1.0,True,1,769.4000000000233,0.7694000000000233,빨강,yellow
pcbRW89vVJcviD87V3uxyG4I9st2,63,84,congruent,0.0,True,1,499.89999999990687,0.49989999999990686,빨강,red
pcbRW89vVJcviD87V3uxyG4I9st2,63,85,neutral,0.5,True,1,670.0,0.67,기차,green
pcbRW89vVJcviD87V3uxyG4I9st2,63,86,incongruent,1.0,True,1,449.80000000004657,0.44980000000004655,파랑,green
pcbRW89vVJcviD87V3uxyG4I9st2,63,87,neutral,0.5,True,1,723.3000000000466,0.7233000000000466,학교,yellow
pcbRW89vVJcviD87V3uxyG4I9st2,63,88,neutral,0.5,True,1,436.60000000009313,0.43660000000009314,기차,blue
pcbRW89vVJcviD87V3uxyG4I9st2,63,89,congruent,0.0,True,1,516.3000000000466,0.5163000000000466,초록,green
pcbRW89vVJcviD87V3uxyG4I9st2,63,90,incongruent,1.0,True,1,495.5,0.4955,노랑,red
pcbRW89vVJcviD87V3uxyG4I9st2,63,91,congruent,0.0,True,1,507.30000000004657,0.5073000000000466,파랑,blue
pcbRW89vVJcviD87V3uxyG4I9st2,63,92,incongruent,1.0,True,1,633.6999999999534,0.6336999999999534,빨강,yellow
pcbRW89vVJcviD87V3uxyG4I9st2,63,93,congruent,0.0,True,1,616.0999999999767,0.6160999999999767,파랑,blue
pcbRW89vVJcviD87V3uxyG4I9st2,63,94,incongruent,1.0,True,1,479.5999999999767,0.4795999999999767,초록,blue
pcbRW89vVJcviD87V3uxyG4I9st2,63,95,neutral,0.5,True,1,711.5999999999767,0.7115999999999767,가방,red
pcbRW89vVJcviD87V3uxyG4I9st2,63,96,incongruent,1.0,True,1,578.6999999999534,0.5786999999999535,노랑,green
pcbRW89vVJcviD87V3uxyG4I9st2,63,97,congruent,0.0,True,1,429.69999999995343,0.42969999999995345,초록,green
pcbRW89vVJcviD87V3uxyG4I9st2,63,98,neutral,0.5,True,1,508.60000000009313,0.5086000000000931,가방,blue
pcbRW89vVJcviD87V3uxyG4I9st2,63,99,neutral,0.5,True,1,555.4000000000233,0.5554000000000233,가방,green
pcbRW89vVJcviD87V3uxyG4I9st2,63,100,neutral,0.5,True,1,549.6999999999534,0.5496999999999534,가방,red
pcbRW89vVJcviD87V3uxyG4I9st2,63,101,congruent,0.0,True,1,491.19999999995343,0.49119999999995345,빨강,red
pcbRW89vVJcviD87V3uxyG4I9st2,63,102,neutral,0.5,True,1,442.10000000009313,0.44210000000009314,학교,red
pcbRW89vVJcviD87V3uxyG4I9st2,63,103,incongruent,1.0,True,1,582.9000000000233,0.5829000000000233,파랑,green
pcbRW89vVJcviD87V3uxyG4I9st2,63,104,congruent,0.0,True,1,532.6999999999534,0.5326999999999534,파랑,blue
pcbRW89vVJcviD87V3uxyG4I9st2,63,105,neutral,0.5,True,1,680.8000000000466,0.6808000000000466,학교,green
pcbRW89vVJcviD87V3uxyG4I9st2,63,106,congruent,0.0,True,1,479.5999999999767,0.4795999999999767,파랑,blue
pcbRW89vVJcviD87V3uxyG4I9st2,63,107,congruent,0.0,True,1,520.0999999999767,0.5200999999999767,초록,green
8cOQBMgQEYSlJ4CK60pFMmBVEBV2,7,0,incongruent,1.0,True,1,1756.1000003814695,1.7561000003814695,초록,blue
8cOQBMgQEYSlJ4CK60pFMmBVEBV2,7,1,congruent,0.0,True,1,1873.199999809265,1.873199999809265,초록,green
8cOQBMgQEYSlJ4CK60pFMmBVEBV2,7,2,congruent,0.0,True,1,1783.5,1.7835,노랑,yellow
8cOQBMgQEYSlJ4CK60pFMmBVEBV2,7,3,incongruent,1.0,True,1,1659.6000003814695,1.6596000003814695,파랑,red
8cOQBMgQEYSlJ4CK60pFMmBVEBV2,7,4,incongruent,1.0,True,1,1902.9000005722048,1.9029000005722048,초록,yellow
8cOQBMgQEYSlJ4CK60pFMmBVEBV2,7,5,congruent,0.0,True,1,1049.1000003814695,1.0491000003814694,노랑,yellow
8cOQBMgQEYSlJ4CK60pFMmBVEBV2,7,6,incongruent,1.0,True,1,1359.1000003814695,1.3591000003814695,빨강,blue
8cOQBMgQEYSlJ4CK60pFMmBVEBV2,7,7,incongruent,1.0,True,1,1177.9000005722046,1.1779000005722047,빨강,yellow
8cOQBMgQEYSlJ4CK60pFMmBVEBV2,7,8,neutral,0.5,True,1,1836.1000003814695,1.8361000003814696,가방,blue
8cOQBMgQEYSlJ4CK60pFMmBVEBV2,7,9,congruent,0.0,True,1,1608.5999994277954,1.6085999994277953,초록,green
8cOQBMgQEYSlJ4CK60pFMmBVEBV2,7,10,neutral,0.5,True,1,1319.2999992370603,1.3192999992370604,학교,yellow
8cOQBMgQEYSlJ4CK60pFMmBVEBV2,7,11,congruent,0.0,True,1,945.3999996185304,0.9453999996185304,파랑,blue
8cOQBMgQEYSlJ4CK60pFMmBVEBV2,7,12,congruent,0.0,True,1,1261.5999994277954,1.2615999994277953,노랑,yellow
8cOQBMgQEYSlJ4CK60pFMmBVEBV2,7,13,incongruent,1.0,True,1,1161.1000003814695,1.1611000003814695,빨강,green
8cOQBMgQEYSlJ4CK60pFMmBVEBV2,7,14,neutral,0.5,True,1,1029.5,1.0295,학교,red
8cOQBMgQEYSlJ4CK60pFMmBVEBV2,7,15,neutral,0.5,True,1,762.2000007629395,0.7622000007629395,가방,red
8cOQBMgQEYSlJ4CK60pFMmBVEBV2,7,16,congruent,0.0,True,1,1035.3000001907349,1.0353000001907349,초록,green
8cOQBMgQEYSlJ4CK60pFMmBVEBV2,7,17,incongruent,1.0,True,1,2095.0,2.095,빨강,blue
8cOQBMgQEYSlJ4CK60pFMmBVEBV2,7,18,neutral,0.5,True,1,752.6999998092651,0.7526999998092652,기차,blue
8cOQBMgQEYSlJ4CK60pFMmBVEBV2,7,19,congruent,0.0,True,1,854.6999998092651,0.8546999998092651,빨강,red
8cOQBMgQEYSlJ4CK60pFMmBVEBV2,7,20,incongruent,1.0,True,1,1754.4000005722046,1.7544000005722047,빨강,green
8cOQBMgQEYSlJ4CK60pFMmBVEBV2,7,21,neutral,0.5,True,1,1221.3999996185305,1.2213999996185305,가방,blue
8cOQBMgQEYSlJ4CK60pFMmBVEBV2,7,22,congruent,0.0,True,1,749.6000003814697,0.7496000003814697,노랑,yellow
8cOQBMgQEYSlJ4CK60pFMmBVEBV2,7,23,incongruent,1.0,True,1,982.0,0.982,초록,red
8cOQBMgQEYSlJ4CK60pFMmBVEBV2,7,24,neutral,0.5,True,1,1002.3999996185304,1.0023999996185304,기차,yellow
8cOQBMgQEYSlJ4CK60pFMmBVEBV2,7,25,incongruent,1.0,True,1,2610.199999809265,2.6101999998092653,노랑,blue
8cOQBMgQEYSlJ4CK60pFMmBVEBV2,7,26,neutral,0.5,True,1,1349.6000003814695,1.3496000003814694,가방,green
8cOQBMgQEYSlJ4CK60pFMmBVEBV2,7,27,neutral,0.5,True,1,937.8999996185304,0.9378999996185304,기차,red
8cOQBMgQEYSlJ4CK60pFMmBVEBV2,7,28,congruent,0.0,True,1,1430.0999994277954,1.4300999994277954,빨강,red
8cOQBMgQEYSlJ4CK60pFMmBVEBV2,7,29,neutral,0.5,True,1,756.3999996185303,0.7563999996185303,가방,yellow
8cOQBMgQEYSlJ4CK60pFMmBVEBV2,7,30,neutral,0.5,True,1,1049.3000001907349,1.0493000001907349,학교,blue
8cOQBMgQEYSlJ4CK60pFMmBVEBV2,7,31,congruent,0.0,True,1,1465.6000003814695,1.4656000003814695,초록,green
8cOQBMgQEYSlJ4CK60pFMmBVEBV2,7,32,congruent,0.0,True,1,1046.5,1.0465,노랑,yellow
8cOQBMgQEYSlJ4CK60pFMmBVEBV2,7,33,congruent,0.0,True,1,1027.3000001907349,1.0273000001907349,파랑,blue
8cOQBMgQEYSlJ4CK60pFMmBVEBV2,7,34,neutral,0.5,True,1,883.6000003814697,0.8836000003814697,학교,red
8cOQBMgQEYSlJ4CK60pFMmBVEBV2,7,35,incongruent,1.0,True,1,1571.6999998092651,1.5716999998092651,파랑,green
8cOQBMgQEYSlJ4CK60pFMmBVEBV2,7,36,neutral,0.5,True,1,1911.6000003814695,1.9116000003814695,기차,blue
8cOQBMgQEYSlJ4CK60pFMmBVEBV2,7,37,neutral,0.5,True,1,923.3000001907347,0.9233000001907348,학교,green
8cOQBMgQEYSlJ4CK60pFMmBVEBV2,7,38,incongruent,1.0,True,1,1327.0,1.327,초록,yellow
8cOQBMgQEYSlJ4CK60pFMmBVEBV2,7,39,incongruent,1.0,True,1,1986.8999996185305,1.9868999996185306,파랑,green
8cOQBMgQEYSlJ4CK60pFMmBVEBV2,7,40,congruent,0.0,True,1,767.8999996185303,0.7678999996185303,파랑,blue
8cOQBMgQEYSlJ4CK60pFMmBVEBV2,7,41,incongruent,1.0,True,1,2188.199999809265,2.188199999809265,노랑,green
8cOQBMgQEYSlJ4CK60pFMmBVEBV2,7,42,neutral,0.5,True,1,1065.9000005722046,1.0659000005722046,학교,red
8cOQBMgQEYSlJ4CK60pFMmBVEBV2,7,43,neutral,0.5,True,1,403.9000005722046,0.4039000005722046,기차,red
8cOQBMgQEYSlJ4CK60pFMmBVEBV2,7,44,neutral,0.5,True,1,1395.3999996185305,1.3953999996185305,기차,green
8cOQBMgQEYSlJ4CK60pFMmBVEBV2,7,45,congruent,0.0,True,1,684.8999996185303,0.6848999996185303,초록,green
8cOQBMgQEYSlJ4CK60pFMmBVEBV2,7,46,incongruent,1.0,True,1,657.8999996185303,0.6578999996185303,노랑,green
8cOQBMgQEYSlJ4CK60pFMmBVEBV2,7,47,neutral,0.5,True,1,1096.1999998092651,1.096199999809265,학교,blue
8cOQBMgQEYSlJ4CK60pFMmBVEBV2,7,48,neutral,0.5,True,1,1447.0999994277954,1.4470999994277953,가방,green
8cOQBMgQEYSlJ4CK60pFMmBVEBV2,7,49,incongruent,1.0,True,1,639.2000007629395,0.6392000007629395,노랑,red
8cOQBMgQEYSlJ4CK60pFMmBVEBV2,7,50,neutral,0.5,True,1,826.5,0.8265,기차,green
8cOQBMgQEYSlJ4CK60pFMmBVEBV2,7,51,congruent,0.0,True,1,822.5,0.8225,파랑,blue
8cOQBMgQEYSlJ4CK60pFMmBVEBV2,7,52,neutral,0.5,True,1,1011.6999998092653,1.0116999998092653,학교,green
8cOQBMgQEYSlJ4CK60pFMmBVEBV2,7,53,incongruent,1.0,False,0,1335.0999994277954,1.3350999994277954,파랑,yellow
8cOQBMgQEYSlJ4CK60pFMmBVEBV2,7,54,congruent,0.0,True,1,729.8999996185303,0.7298999996185302,빨강,red
8cOQBMgQEYSlJ4CK60pFMmBVEBV2,7,55,incongruent,1.0,True,1,1081.8000001907349,1.0818000001907349,파랑,green
8cOQBMgQEYSlJ4CK60pFMmBVEBV2,7,56,congruent,0.0,True,1,835.0,0.835,초록,green
8cOQBMgQEYSlJ4CK60pFMmBVEBV2,7,57,congruent,0.0,True,1,679.7999992370605,0.6797999992370606,파랑,blue
8cOQBMgQEYSlJ4CK60pFMmBVEBV2,7,58,incongruent,1.0,True,1,883.6999998092651,0.8836999998092652,빨강,blue
8cOQBMgQEYSlJ4CK60pFMmBVEBV2,7,59,neutral,0.5,True,1,1572.3000001907349,1.5723000001907348,가방,yellow
8cOQBMgQEYSlJ4CK60pFMmBVEBV2,7,60,incongruent,1.0,True,1,685.1999998092651,0.6851999998092652,빨강,yellow
8cOQBMgQEYSlJ4CK60pFMmBVEBV2,7,61,neutral,0.5,True,1,1058.6000003814695,1.0586000003814695,기차,red
8cOQBMgQEYSlJ4CK60pFMmBVEBV2,7,62,neutral,0.5,True,1,1158.8000001907349,1.1588000001907348,학교,blue
8cOQBMgQEYSlJ4CK60pFMmBVEBV2,7,63,neutral,0.5,True,1,1133.0,1.133,기차,green
8cOQBMgQEYSlJ4CK60pFMmBVEBV2,7,64,neutral,0.5,True,1,870.1999998092651,0.8701999998092651,학교,yellow
8cOQBMgQEYSlJ4CK60pFMmBVEBV2,7,65,congruent,0.0,True,1,1307.1999998092651,1.3071999998092652,파랑,blue
8cOQBMgQEYSlJ4CK60pFMmBVEBV2,7,66,neutral,0.5,True,1,495.6000003814697,0.49560000038146973,기차,blue
8cOQBMgQEYSlJ4CK60pFMmBVEBV2,7,67,congruent,0.0,True,1,906.1999998092653,0.9061999998092652,빨강,red
8cOQBMgQEYSlJ4CK60pFMmBVEBV2,7,68,neutral,0.5,True,1,1096.5,1.0965,기차,yellow
8cOQBMgQEYSlJ4CK60pFMmBVEBV2,7,69,neutral,0.5,True,1,1049.1000003814695,1.0491000003814694,학교,green
8cOQBMgQEYSlJ4CK60pFMmBVEBV2,7,70,incongruent,1.0,True,1,881.6000003814697,0.8816000003814697,노랑,green
8cOQBMgQEYSlJ4CK60pFMmBVEBV2,7,71,incongruent,1.0,True,1,1048.5,1.0485,노랑,red
8cOQBMgQEYSlJ4CK60pFMmBVEBV2,7,72,congruent,0.0,True,1,513.8999996185303,0.5138999996185303,빨강,red
8cOQBMgQEYSlJ4CK60pFMmBVEBV2,7,73,incongruent,1.0,True,1,1648.1000003814695,1.6481000003814694,빨강,yellow
8cOQBMgQEYSlJ4CK60pFMmBVEBV2,7,74,incongruent,1.0,True,1,1264.8999996185305,1.2648999996185304,초록,blue
8cOQBMgQEYSlJ4CK60pFMmBVEBV2,7,75,incongruent,1.0,True,1,935.6000003814696,0.9356000003814696,노랑,red
8cOQBMgQEYSlJ4CK60pFMmBVEBV2,7,76,congruent,0.0,True,1,554.6000003814697,0.5546000003814697,빨강,red
8cOQBMgQEYSlJ4CK60pFMmBVEBV2,7,77,incongruent,1.0,True,1,842.8999996185303,0.8428999996185302,초록,red
8cOQBMgQEYSlJ4CK60pFMmBVEBV2,7,78,congruent,0.0,True,1,1073.8000001907349,1.0738000001907348,노랑,yellow
8cOQBMgQEYSlJ4CK60pFMmBVEBV2,7,79,incongruent,1.0,True,1,1162.5,1.1625,노랑,blue
8cOQBMgQEYSlJ4CK60pFMmBVEBV2,7,80,congruent,0.0,True,1,1096.1999998092651,1.096199999809265,노랑,yellow
8cOQBMgQEYSlJ4CK60pFMmBVEBV2,7,81,congruent,0.0,True,1,1275.0,1.275,초록,green
8cOQBMgQEYSlJ4CK60pFMmBVEBV2,7,82,congruent,0.0,True,1,647.1000003814697,0.6471000003814698,빨강,red
8cOQBMgQEYSlJ4CK60pFMmBVEBV2,7,83,incongruent,1.0,True,1,1613.5,1.6135,초록,yellow
8cOQBMgQEYSlJ4CK60pFMmBVEBV2,7,84,neutral,0.5,True,1,1508.8999996185305,1.5088999996185306,가방,blue
8cOQBMgQEYSlJ4CK60pFMmBVEBV2,7,85,congruent,0.0,True,1,1083.8000001907349,1.0838000001907349,노랑,yellow
8cOQBMgQEYSlJ4CK60pFMmBVEBV2,7,86,incongruent,1.0,True,1,1638.1000003814695,1.6381000003814694,노랑,blue
8cOQBMgQEYSlJ4CK60pFMmBVEBV2,7,87,congruent,0.0,True,1,1642.8999996185305,1.6428999996185305,초록,green
8cOQBMgQEYSlJ4CK60pFMmBVEBV2,7,88,incongruent,1.0,True,1,1058.0,1.058,파랑,yellow
8cOQBMgQEYSlJ4CK60pFMmBVEBV2,7,89,incongruent,1.0,True,1,1188.2000007629397,1.1882000007629396,파랑,red
8cOQBMgQEYSlJ4CK60pFMmBVEBV2,7,90,neutral,0.5,True,1,1153.7999992370603,1.1537999992370602,학교,yellow
8cOQBMgQEYSlJ4CK60pFMmBVEBV2,7,91,incongruent,1.0,True,1,1568.5,1.5685,초록,blue
8cOQBMgQEYSlJ4CK60pFMmBVEBV2,7,92,neutral,0.5,True,1,712.0,0.712,가방,red
8cOQBMgQEYSlJ4CK60pFMmBVEBV2,7,93,incongruent,1.0,True,1,965.6999998092653,0.9656999998092652,파랑,red
8cOQBMgQEYSlJ4CK60pFMmBVEBV2,7,94,neutral,0.5,True,1,924.5,0.9245,기차,yellow
8cOQBMgQEYSlJ4CK60pFMmBVEBV2,7,95,congruent,0.0,True,1,801.0999994277954,0.8010999994277954,초록,green
8cOQBMgQEYSlJ4CK60pFMmBVEBV2,7,96,congruent,0.0,True,1,601.5,0.6015,빨강,red
8cOQBMgQEYSlJ4CK60pFMmBVEBV2,7,97,neutral,0.5,True,1,805.8999996185303,0.8058999996185303,가방,yellow
8cOQBMgQEYSlJ4CK60pFMmBVEBV2,7,98,congruent,0.0,True,1,1007.3000001907347,1.0073000001907348,파랑,blue
8cOQBMgQEYSlJ4CK60pFMmBVEBV2,7,99,incongruent,1.0,True,1,817.6000003814697,0.8176000003814697,초록,red
8cOQBMgQEYSlJ4CK60pFMmBVEBV2,7,100,congruent,0.0,True,1,963.6999998092653,0.9636999998092652,노랑,yellow
8cOQBMgQEYSlJ4CK60pFMmBVEBV2,7,101,incongruent,1.0,True,1,839.3000001907349,0.8393000001907349,파랑,yellow
8cOQBMgQEYSlJ4CK60pFMmBVEBV2,7,102,neutral,0.5,True,1,828.8000001907349,0.8288000001907349,가방,green
8cOQBMgQEYSlJ4CK60pFMmBVEBV2,7,103,congruent,0.0,True,1,748.3000001907349,0.7483000001907348,파랑,blue
8cOQBMgQEYSlJ4CK60pFMmBVEBV2,7,104,incongruent,1.0,True,1,1437.6999998092651,1.4376999998092652,빨강,green
8cOQBMgQEYSlJ4CK60pFMmBVEBV2,7,105,congruent,0.0,True,1,895.8999996185303,0.8958999996185303,파랑,blue
8cOQBMgQEYSlJ4CK60pFMmBVEBV2,7,106,neutral,0.5,True,1,764.3999996185303,0.7643999996185302,가방,red
8cOQBMgQEYSlJ4CK60pFMmBVEBV2,7,107,congruent,0.0,True,1,517.3999996185303,0.5173999996185302,빨강,red
yatBVTBMCSMp0wJluOCLzTFKMyP2,82,0,congruent,0.0,True,1,1040.9999999962747,1.0409999999962747,초록,green
yatBVTBMCSMp0wJluOCLzTFKMyP2,82,1,neutral,0.5,True,1,1027.0,1.027,학교,blue
yatBVTBMCSMp0wJluOCLzTFKMyP2,82,2,neutral,0.5,True,1,1107.0,1.107,가방,green
yatBVTBMCSMp0wJluOCLzTFKMyP2,82,3,incongruent,1.0,True,1,937.9999999962748,0.9379999999962748,빨강,blue
yatBVTBMCSMp0wJluOCLzTFKMyP2,82,4,incongruent,1.0,True,1,1268.0,1.268,파랑,yellow
yatBVTBMCSMp0wJluOCLzTFKMyP2,82,5,incongruent,1.0,True,1,1094.0,1.094,초록,blue
yatBVTBMCSMp0wJluOCLzTFKMyP2,82,6,congruent,0.0,True,1,979.0,0.979,초록,green
yatBVTBMCSMp0wJluOCLzTFKMyP2,82,7,neutral,0.5,True,1,874.0,0.874,학교,green
yatBVTBMCSMp0wJluOCLzTFKMyP2,82,8,incongruent,1.0,True,1,1121.0,1.121,빨강,yellow
yatBVTBMCSMp0wJluOCLzTFKMyP2,82,9,incongruent,1.0,True,1,961.0,0.961,초록,yellow
yatBVTBMCSMp0wJluOCLzTFKMyP2,82,10,neutral,0.5,True,1,876.9999999962747,0.8769999999962748,가방,blue
yatBVTBMCSMp0wJluOCLzTFKMyP2,82,11,congruent,0.0,True,1,706.0,0.706,파랑,blue
yatBVTBMCSMp0wJluOCLzTFKMyP2,82,12,congruent,0.0,True,1,987.0,0.987,노랑,yellow
yatBVTBMCSMp0wJluOCLzTFKMyP2,82,13,congruent,0.0,True,1,738.0,0.738,파랑,blue
yatBVTBMCSMp0wJluOCLzTFKMyP2,82,14,incongruent,1.0,True,1,953.0,0.953,빨강,green
yatBVTBMCSMp0wJluOCLzTFKMyP2,82,15,neutral,0.5,True,1,921.0,0.921,기차,red
yatBVTBMCSMp0wJluOCLzTFKMyP2,82,16,congruent,0.0,True,1,695.0,0.695,빨강,red
yatBVTBMCSMp0wJluOCLzTFKMyP2,82,17,incongruent,1.0,True,1,995.9999999962748,0.9959999999962749,초록,blue
yatBVTBMCSMp0wJluOCLzTFKMyP2,82,18,congruent,0.0,True,1,987.0,0.987,빨강,red
yatBVTBMCSMp0wJluOCLzTFKMyP2,82,19,neutral,0.5,True,1,795.0,0.795,가방,red
yatBVTBMCSMp0wJluOCLzTFKMyP2,82,20,neutral,0.5,True,1,1323.0000000037253,1.3230000000037252,학교,green
yatBVTBMCSMp0wJluOCLzTFKMyP2,82,21,incongruent,1.0,True,1,1318.0,1.318,파랑,red
yatBVTBMCSMp0wJluOCLzTFKMyP2,82,22,neutral,0.5,True,1,858.0,0.858,가방,red
yatBVTBMCSMp0wJluOCLzTFKMyP2,82,23,neutral,0.5,True,1,1020.0,1.02,가방,blue
yatBVTBMCSMp0wJluOCLzTFKMyP2,82,24,congruent,0.0,True,1,1488.9999999962747,1.4889999999962746,노랑,yellow
yatBVTBMCSMp0wJluOCLzTFKMyP2,82,25,incongruent,1.0,True,1,1079.0,1.079,빨강,green
yatBVTBMCSMp0wJluOCLzTFKMyP2,82,26,neutral,0.5,True,1,1052.0,1.052,기차,blue
yatBVTBMCSMp0wJluOCLzTFKMyP2,82,27,incongruent,1.0,True,1,972.0,0.972,노랑,red
yatBVTBMCSMp0wJluOCLzTFKMyP2,82,28,incongruent,1.0,True,1,690.0,0.69,초록,red
yatBVTBMCSMp0wJluOCLzTFKMyP2,82,29,congruent,0.0,True,1,936.0,0.936,파랑,blue
yatBVTBMCSMp0wJluOCLzTFKMyP2,82,30,congruent,0.0,True,1,887.0,0.887,초록,green
yatBVTBMCSMp0wJluOCLzTFKMyP2,82,31,congruent,0.0,True,1,890.0,0.89,파랑,blue
yatBVTBMCSMp0wJluOCLzTFKMyP2,82,32,incongruent,1.0,True,1,1153.0000000037253,1.1530000000037253,노랑,green
yatBVTBMCSMp0wJluOCLzTFKMyP2,82,33,neutral,0.5,True,1,886.0000000037253,0.8860000000037253,기차,red
yatBVTBMCSMp0wJluOCLzTFKMyP2,82,34,incongruent,1.0,True,1,937.0,0.937,노랑,blue
yatBVTBMCSMp0wJluOCLzTFKMyP2,82,35,incongruent,1.0,True,1,1255.0,1.255,파랑,red
yatBVTBMCSMp0wJluOCLzTFKMyP2,82,36,congruent,0.0,True,1,927.0,0.927,파랑,blue
yatBVTBMCSMp0wJluOCLzTFKMyP2,82,37,incongruent,1.0,True,1,796.0,0.796,빨강,blue
yatBVTBMCSMp0wJluOCLzTFKMyP2,82,38,congruent,0.0,True,1,909.0,0.909,초록,green
yatBVTBMCSMp0wJluOCLzTFKMyP2,82,39,neutral,0.5,True,1,882.9999999962747,0.8829999999962748,기차,yellow
yatBVTBMCSMp0wJluOCLzTFKMyP2,82,40,congruent,0.0,True,1,1027.0,1.027,노랑,yellow
yatBVTBMCSMp0wJluOCLzTFKMyP2,82,41,incongruent,1.0,True,1,762.0,0.762,빨강,yellow
yatBVTBMCSMp0wJluOCLzTFKMyP2,82,42,neutral,0.5,True,1,758.9999999962747,0.7589999999962747,기차,yellow
yatBVTBMCSMp0wJluOCLzTFKMyP2,82,43,incongruent,1.0,True,1,695.0,0.695,파랑,yellow
yatBVTBMCSMp0wJluOCLzTFKMyP2,82,44,congruent,0.0,True,1,954.0,0.954,빨강,red
yatBVTBMCSMp0wJluOCLzTFKMyP2,82,45,incongruent,1.0,True,1,1005.0,1.005,빨강,green
yatBVTBMCSMp0wJluOCLzTFKMyP2,82,46,neutral,0.5,True,1,941.0,0.941,학교,red
yatBVTBMCSMp0wJluOCLzTFKMyP2,82,47,neutral,0.5,True,1,936.0,0.936,기차,yellow
yatBVTBMCSMp0wJluOCLzTFKMyP2,82,48,neutral,0.5,True,1,1096.0,1.096,기차,red
yatBVTBMCSMp0wJluOCLzTFKMyP2,82,49,incongruent,1.0,True,1,846.0,0.846,노랑,green
yatBVTBMCSMp0wJluOCLzTFKMyP2,82,50,congruent,0.0,True,1,506.0,0.506,초록,green
yatBVTBMCSMp0wJluOCLzTFKMyP2,82,51,incongruent,1.0,True,1,1101.0,1.101,초록,yellow
yatBVTBMCSMp0wJluOCLzTFKMyP2,82,52,incongruent,1.0,True,1,928.0,0.928,파랑,red
yatBVTBMCSMp0wJluOCLzTFKMyP2,82,53,incongruent,1.0,True,1,1068.0,1.068,빨강,blue
yatBVTBMCSMp0wJluOCLzTFKMyP2,82,54,congruent,0.0,True,1,741.0,0.741,파랑,blue
yatBVTBMCSMp0wJluOCLzTFKMyP2,82,55,neutral,0.5,True,1,983.0,0.983,기차,green
yatBVTBMCSMp0wJluOCLzTFKMyP2,82,56,congruent,0.0,True,1,725.0000000037253,0.7250000000037253,초록,green
yatBVTBMCSMp0wJluOCLzTFKMyP2,82,57,neutral,0.5,True,1,688.0,0.688,기차,green
yatBVTBMCSMp0wJluOCLzTFKMyP2,82,58,incongruent,1.0,True,1,539.9999999962747,0.5399999999962747,파랑,green
yatBVTBMCSMp0wJluOCLzTFKMyP2,82,59,incongruent,1.0,True,1,854.0,0.854,노랑,blue
yatBVTBMCSMp0wJluOCLzTFKMyP2,82,60,congruent,0.0,True,1,871.0,0.871,노랑,yellow
yatBVTBMCSMp0wJluOCLzTFKMyP2,82,61,neutral,0.5,True,1,689.0,0.689,학교,yellow
yatBVTBMCSMp0wJluOCLzTFKMyP2,82,62,neutral,0.5,True,1,984.0,0.984,학교,red
yatBVTBMCSMp0wJluOCLzTFKMyP2,82,63,neutral,0.5,True,1,944.0,0.944,가방,yellow
yatBVTBMCSMp0wJluOCLzTFKMyP2,82,64,congruent,0.0,True,1,845.9999999962747,0.8459999999962747,빨강,red
yatBVTBMCSMp0wJluOCLzTFKMyP2,82,65,congruent,0.0,True,1,850.9999999962747,0.8509999999962747,초록,green
yatBVTBMCSMp0wJluOCLzTFKMyP2,82,66,congruent,0.0,True,1,986.0,0.986,빨강,red
yatBVTBMCSMp0wJluOCLzTFKMyP2,82,67,neutral,0.5,True,1,1060.9999999962747,1.0609999999962747,가방,green
yatBVTBMCSMp0wJluOCLzTFKMyP2,82,68,incongruent,1.0,True,1,920.0,0.92,초록,red
yatBVTBMCSMp0wJluOCLzTFKMyP2,82,69,incongruent,1.0,True,1,829.0,0.829,노랑,green
yatBVTBMCSMp0wJluOCLzTFKMyP2,82,70,neutral,0.5,True,1,802.0,0.802,가방,blue
yatBVTBMCSMp0wJluOCLzTFKMyP2,82,71,neutral,0.5,True,1,608.0000000037253,0.6080000000037253,학교,blue
yatBVTBMCSMp0wJluOCLzTFKMyP2,82,72,congruent,0.0,True,1,1341.0,1.341,노랑,yellow
yatBVTBMCSMp0wJluOCLzTFKMyP2,82,73,neutral,0.5,True,1,795.0,0.795,가방,yellow
yatBVTBMCSMp0wJluOCLzTFKMyP2,82,74,neutral,0.5,True,1,855.0,0.855,기차,blue
yatBVTBMCSMp0wJluOCLzTFKMyP2,82,75,congruent,0.0,True,1,888.0,0.888,빨강,red
yatBVTBMCSMp0wJluOCLzTFKMyP2,82,76,congruent,0.0,True,1,939.0,0.939,초록,green
yatBVTBMCSMp0wJluOCLzTFKMyP2,82,77,incongruent,1.0,True,1,925.0,0.925,초록,blue
yatBVTBMCSMp0wJluOCLzTFKMyP2,82,78,neutral,0.5,True,1,842.0,0.842,기차,green
yatBVTBMCSMp0wJluOCLzTFKMyP2,82,79,congruent,0.0,True,1,915.9999999962748,0.9159999999962748,파랑,blue
yatBVTBMCSMp0wJluOCLzTFKMyP2,82,80,congruent,0.0,True,1,922.0,0.922,빨강,red
yatBVTBMCSMp0wJluOCLzTFKMyP2,82,81,neutral,0.5,True,1,709.9999999962747,0.7099999999962747,가방,red
yatBVTBMCSMp0wJluOCLzTFKMyP2,82,82,congruent,0.0,True,1,1721.9999999962747,1.7219999999962747,파랑,blue
yatBVTBMCSMp0wJluOCLzTFKMyP2,82,83,congruent,0.0,True,1,922.0,0.922,노랑,yellow
yatBVTBMCSMp0wJluOCLzTFKMyP2,82,84,neutral,0.5,True,1,672.0,0.672,가방,yellow
yatBVTBMCSMp0wJluOCLzTFKMyP2,82,85,incongruent,1.0,True,1,490.0000000037253,0.4900000000037253,파랑,yellow
yatBVTBMCSMp0wJluOCLzTFKMyP2,82,86,congruent,0.0,True,1,1052.0,1.052,빨강,red
yatBVTBMCSMp0wJluOCLzTFKMyP2,82,87,congruent,0.0,True,1,1123.0,1.123,노랑,yellow
yatBVTBMCSMp0wJluOCLzTFKMyP2,82,88,incongruent,1.0,True,1,987.0,0.987,노랑,blue
yatBVTBMCSMp0wJluOCLzTFKMyP2,82,89,neutral,0.5,True,1,753.0,0.753,학교,blue
yatBVTBMCSMp0wJluOCLzTFKMyP2,82,90,congruent,0.0,True,1,1306.0,1.306,노랑,yellow
yatBVTBMCSMp0wJluOCLzTFKMyP2,82,91,congruent,0.0,True,1,831.0,0.831,초록,green
yatBVTBMCSMp0wJluOCLzTFKMyP2,82,92,incongruent,1.0,True,1,1008.0,1.008,노랑,red
yatBVTBMCSMp0wJluOCLzTFKMyP2,82,93,incongruent,1.0,True,1,1078.0,1.078,빨강,yellow
yatBVTBMCSMp0wJluOCLzTFKMyP2,82,94,incongruent,1.0,True,1,1028.0,1.028,초록,red
yatBVTBMCSMp0wJluOCLzTFKMyP2,82,95,congruent,0.0,True,1,764.0,0.764,빨강,red
yatBVTBMCSMp0wJluOCLzTFKMyP2,82,96,incongruent,1.0,True,1,1293.9999999962747,1.2939999999962748,파랑,green
yatBVTBMCSMp0wJluOCLzTFKMyP2,82,97,incongruent,1.0,True,1,1322.0,1.322,초록,yellow
yatBVTBMCSMp0wJluOCLzTFKMyP2,82,98,incongruent,1.0,True,1,1382.0000000037253,1.3820000000037254,노랑,red
yatBVTBMCSMp0wJluOCLzTFKMyP2,82,99,neutral,0.5,True,1,1035.0,1.035,학교,green
yatBVTBMCSMp0wJluOCLzTFKMyP2,82,100,neutral,0.5,True,1,720.0,0.72,가방,green
yatBVTBMCSMp0wJluOCLzTFKMyP2,82,101,neutral,0.5,True,1,919.0,0.919,기차,blue
yatBVTBMCSMp0wJluOCLzTFKMyP2,82,102,neutral,0.5,True,1,1823.0000000037253,1.8230000000037252,학교,yellow
yatBVTBMCSMp0wJluOCLzTFKMyP2,82,103,neutral,0.5,True,1,1454.0,1.454,학교,red
yatBVTBMCSMp0wJluOCLzTFKMyP2,82,104,incongruent,1.0,True,1,1055.9999999962747,1.0559999999962748,파랑,green
yatBVTBMCSMp0wJluOCLzTFKMyP2,82,105,congruent,0.0,True,1,1022.0,1.022,파랑,blue
yatBVTBMCSMp0wJluOCLzTFKMyP2,82,106,congruent,0.0,True,1,1005.0000000037252,1.0050000000037251,노랑,yellow
yatBVTBMCSMp0wJluOCLzTFKMyP2,82,107,neutral,0.5,True,1,660.0,0.66,학교,yellow
u64Uf920g5VD9Byq26LT2rs5o4t1,72,0,incongruent,1.0,True,1,1044.600000023842,1.044600000023842,노랑,green
u64Uf920g5VD9Byq26LT2rs5o4t1,72,1,congruent,0.0,True,1,964.100000023842,0.964100000023842,노랑,yellow
u64Uf920g5VD9Byq26LT2rs5o4t1,72,2,neutral,0.5,True,1,1322.600000023842,1.322600000023842,기차,blue
u64Uf920g5VD9Byq26LT2rs5o4t1,72,3,congruent,0.0,True,1,978.5,0.9785,파랑,blue
u64Uf920g5VD9Byq26LT2rs5o4t1,72,4,congruent,0.0,True,1,654.1000000238419,0.6541000000238418,빨강,red
u64Uf920g5VD9Byq26LT2rs5o4t1,72,5,incongruent,1.0,True,1,1064.0,1.064,빨강,blue
u64Uf920g5VD9Byq26LT2rs5o4t1,72,6,congruent,0.0,True,1,753.3000000119209,0.7533000000119209,빨강,red
u64Uf920g5VD9Byq26LT2rs5o4t1,72,7,congruent,0.0,True,1,640.8999999761581,0.6408999999761581,초록,green
u64Uf920g5VD9Byq26LT2rs5o4t1,72,8,neutral,0.5,True,1,958.100000023842,0.958100000023842,가방,red
u64Uf920g5VD9Byq26LT2rs5o4t1,72,9,incongruent,1.0,True,1,1026.5,1.0265,파랑,green
u64Uf920g5VD9Byq26LT2rs5o4t1,72,10,neutral,0.5,True,1,902.600000023842,0.902600000023842,가방,green
u64Uf920g5VD9Byq26LT2rs5o4t1,72,11,neutral,0.5,True,1,863.7999999523163,0.8637999999523163,기차,yellow
u64Uf920g5VD9Byq26LT2rs5o4t1,72,12,congruent,0.0,True,1,667.2999999523163,0.6672999999523163,빨강,red
u64Uf920g5VD9Byq26LT2rs5o4t1,72,13,incongruent,1.0,True,1,816.0,0.816,초록,yellow
u64Uf920g5VD9Byq26LT2rs5o4t1,72,14,congruent,0.0,True,1,713.6000000238419,0.7136000000238418,빨강,red
u64Uf920g5VD9Byq26LT2rs5o4t1,72,15,congruent,0.0,True,1,770.9000000357628,0.7709000000357628,노랑,yellow
u64Uf920g5VD9Byq26LT2rs5o4t1,72,16,neutral,0.5,True,1,755.6000000238419,0.7556000000238419,기차,red
u64Uf920g5VD9Byq26LT2rs5o4t1,72,17,congruent,0.0,True,1,695.5,0.6955,초록,green
u64Uf920g5VD9Byq26LT2rs5o4t1,72,18,neutral,0.5,True,1,658.5,0.6585,학교,yellow
u64Uf920g5VD9Byq26LT2rs5o4t1,72,19,incongruent,1.0,True,1,628.3000000119209,0.6283000000119209,초록,blue
u64Uf920g5VD9Byq26LT2rs5o4t1,72,20,congruent,0.0,True,1,583.6999999880791,0.5836999999880791,파랑,blue
u64Uf920g5VD9Byq26LT2rs5o4t1,72,21,congruent,0.0,True,1,694.4000000357628,0.6944000000357627,노랑,yellow
u64Uf920g5VD9Byq26LT2rs5o4t1,72,22,neutral,0.5,True,1,494.5,0.4945,기차,blue
u64Uf920g5VD9Byq26LT2rs5o4t1,72,23,congruent,0.0,True,1,764.0999999642372,0.7640999999642372,초록,green
u64Uf920g5VD9Byq26LT2rs5o4t1,72,24,congruent,0.0,True,1,503.9000000357628,0.5039000000357627,빨강,red
u64Uf920g5VD9Byq26LT2rs5o4t1,72,25,incongruent,1.0,True,1,1222.699999988079,1.222699999988079,빨강,green
u64Uf920g5VD9Byq26LT2rs5o4t1,72,26,congruent,0.0,True,1,809.5,0.8095,빨강,red
u64Uf920g5VD9Byq26LT2rs5o4t1,72,27,incongruent,1.0,True,1,680.5,0.6805,초록,red
u64Uf920g5VD9Byq26LT2rs5o4t1,72,28,neutral,0.5,True,1,702.5,0.7025,가방,blue
u64Uf920g5VD9Byq26LT2rs5o4t1,72,29,incongruent,1.0,True,1,1076.0,1.076,노랑,blue
u64Uf920g5VD9Byq26LT2rs5o4t1,72,30,congruent,0.0,True,1,660.8999999761581,0.6608999999761581,노랑,yellow
u64Uf920g5VD9Byq26LT2rs5o4t1,72,31,incongruent,1.0,True,1,676.8000000119209,0.676800000011921,초록,red
u64Uf920g5VD9Byq26LT2rs5o4t1,72,32,incongruent,1.0,True,1,741.4000000357628,0.7414000000357628,빨강,yellow
u64Uf920g5VD9Byq26LT2rs5o4t1,72,33,neutral,0.5,True,1,852.1000000238419,0.8521000000238419,기차,green
u64Uf920g5VD9Byq26LT2rs5o4t1,72,34,neutral,0.5,True,1,613.6999999880791,0.6136999999880791,학교,green
u64Uf920g5VD9Byq26LT2rs5o4t1,72,35,incongruent,1.0,True,1,596.6000000238419,0.5966000000238418,빨강,yellow
u64Uf920g5VD9Byq26LT2rs5o4t1,72,36,congruent,0.0,True,1,562.5,0.5625,노랑,yellow
u64Uf920g5VD9Byq26LT2rs5o4t1,72,37,incongruent,1.0,True,1,724.1999999880791,0.724199999988079,노랑,blue
u64Uf920g5VD9Byq26LT2rs5o4t1,72,38,incongruent,1.0,True,1,1003.399999976158,1.003399999976158,파랑,green
u64Uf920g5VD9Byq26LT2rs5o4t1,72,39,neutral,0.5,True,1,652.8999999761581,0.6528999999761581,기차,green
u64Uf920g5VD9Byq26LT2rs5o4t1,72,40,congruent,0.0,True,1,753.8999999761581,0.7538999999761582,노랑,yellow
u64Uf920g5VD9Byq26LT2rs5o4t1,72,41,congruent,0.0,True,1,967.6999999880792,0.9676999999880792,파랑,blue
u64Uf920g5VD9Byq26LT2rs5o4t1,72,42,incongruent,1.0,True,1,747.7000000476837,0.7477000000476837,파랑,yellow
u64Uf920g5VD9Byq26LT2rs5o4t1,72,43,congruent,0.0,True,1,803.5999999642372,0.8035999999642373,초록,green
u64Uf920g5VD9Byq26LT2rs5o4t1,72,44,congruent,0.0,True,1,690.8000000119209,0.6908000000119209,노랑,yellow
u64Uf920g5VD9Byq26LT2rs5o4t1,72,45,congruent,0.0,True,1,795.0999999642372,0.7950999999642372,초록,green
u64Uf920g5VD9Byq26LT2rs5o4t1,72,46,incongruent,1.0,True,1,804.1000000238419,0.8041000000238419,빨강,blue
u64Uf920g5VD9Byq26LT2rs5o4t1,72,47,incongruent,1.0,True,1,543.0,0.543,초록,blue
u64Uf920g5VD9Byq26LT2rs5o4t1,72,48,neutral,0.5,True,1,919.3000000119208,0.9193000000119208,학교,green
u64Uf920g5VD9Byq26LT2rs5o4t1,72,49,incongruent,1.0,True,1,590.0,0.59,빨강,green
u64Uf920g5VD9Byq26LT2rs5o4t1,72,50,incongruent,1.0,True,1,688.9000000357628,0.6889000000357628,파랑,red
u64Uf920g5VD9Byq26LT2rs5o4t1,72,51,neutral,0.5,True,1,908.4000000357628,0.9084000000357628,학교,blue
u64Uf920g5VD9Byq26LT2rs5o4t1,72,52,neutral,0.5,True,1,655.0999999642372,0.6550999999642372,학교,green
u64Uf920g5VD9Byq26LT2rs5o4t1,72,53,neutral,0.5,True,1,572.8000000119209,0.5728000000119209,가방,red
u64Uf920g5VD9Byq26LT2rs5o4t1,72,54,neutral,0.5,True,1,811.9000000357628,0.8119000000357628,학교,blue
u64Uf920g5VD9Byq26LT2rs5o4t1,72,55,neutral,0.5,True,1,719.1999999880791,0.719199999988079,기차,yellow
u64Uf920g5VD9Byq26LT2rs5o4t1,72,56,incongruent,1.0,True,1,669.3000000119209,0.6693000000119209,노랑,red
u64Uf920g5VD9Byq26LT2rs5o4t1,72,57,incongruent,1.0,True,1,783.3000000119209,0.7833000000119209,노랑,blue
u64Uf920g5VD9Byq26LT2rs5o4t1,72,58,incongruent,1.0,True,1,629.9000000357628,0.6299000000357627,노랑,green
u64Uf920g5VD9Byq26LT2rs5o4t1,72,59,incongruent,1.0,True,1,874.2999999523163,0.8742999999523163,빨강,blue
u64Uf920g5VD9Byq26LT2rs5o4t1,72,60,neutral,0.5,True,1,644.3000000119209,0.6443000000119209,학교,red
u64Uf920g5VD9Byq26LT2rs5o4t1,72,61,neutral,0.5,True,1,872.6999999880791,0.8726999999880791,기차,green
u64Uf920g5VD9Byq26LT2rs5o4t1,72,62,incongruent,1.0,True,1,641.0999999642372,0.6410999999642372,초록,yellow
u64Uf920g5VD9Byq26LT2rs5o4t1,72,63,congruent,0.0,True,1,525.7000000476837,0.5257000000476837,파랑,blue
u64Uf920g5VD9Byq26LT2rs5o4t1,72,64,neutral,0.5,True,1,921.5,0.9215,가방,yellow
u64Uf920g5VD9Byq26LT2rs5o4t1,72,65,incongruent,1.0,True,1,594.5,0.5945,파랑,yellow
u64Uf920g5VD9Byq26LT2rs5o4t1,72,66,neutral,0.5,True,1,882.5,0.8825,기차,blue
u64Uf920g5VD9Byq26LT2rs5o4t1,72,67,incongruent,1.0,True,1,568.0,0.568,초록,red
u64Uf920g5VD9Byq26LT2rs5o4t1,72,68,incongruent,1.0,True,1,931.1999999880792,0.9311999999880792,빨강,green
u64Uf920g5VD9Byq26LT2rs5o4t1,72,69,congruent,0.0,True,1,551.8000000119209,0.551800000011921,초록,green
u64Uf920g5VD9Byq26LT2rs5o4t1,72,70,congruent,0.0,True,1,615.2000000476837,0.6152000000476837,파랑,blue
u64Uf920g5VD9Byq26LT2rs5o4t1,72,71,neutral,0.5,True,1,575.7000000476837,0.5757000000476837,가방,yellow
u64Uf920g5VD9Byq26LT2rs5o4t1,72,72,neutral,0.5,True,1,691.8000000119209,0.6918000000119209,가방,green
u64Uf920g5VD9Byq26LT2rs5o4t1,72,73,congruent,0.0,True,1,635.3999999761581,0.6353999999761581,파랑,blue
u64Uf920g5VD9Byq26LT2rs5o4t1,72,74,incongruent,1.0,True,1,572.0999999642372,0.5720999999642372,노랑,red
u64Uf920g5VD9Byq26LT2rs5o4t1,72,75,neutral,0.5,True,1,935.0999999642372,0.9350999999642372,가방,yellow
u64Uf920g5VD9Byq26LT2rs5o4t1,72,76,neutral,0.5,True,1,582.0999999642372,0.5820999999642372,기차,yellow
u64Uf920g5VD9Byq26LT2rs5o4t1,72,77,neutral,0.5,True,1,749.5999999642372,0.7495999999642372,가방,red
u64Uf920g5VD9Byq26LT2rs5o4t1,72,78,neutral,0.5,True,1,517.8999999761581,0.5178999999761581,학교,red
u64Uf920g5VD9Byq26LT2rs5o4t1,72,79,congruent,0.0,True,1,665.4000000357628,0.6654000000357628,파랑,blue
u64Uf920g5VD9Byq26LT2rs5o4t1,72,80,congruent,0.0,True,1,652.4000000357628,0.6524000000357628,초록,green
u64Uf920g5VD9Byq26LT2rs5o4t1,72,81,incongruent,1.0,True,1,767.6999999880791,0.767699999988079,노랑,red
