participant_id,participant_idx,trial_index,soa_ms,soa_sec,soa_category,t1_rt_ms,t1_rt_sec,t2_rt_ms,t2_rt_sec,t1_correct,t2_correct
GE4hogtdLdTFbNasENgtm6SO3hC3,20,0.0,50.0,0.05,short,1781.0,1.781,2217.5,2.2175,True,True
GE4hogtdLdTFbNasENgtm6SO3hC3,20,1.0,50.0,0.05,short,1052.5999999940395,1.0525999999940396,1231.0,1.231,True,True
GE4hogtdLdTFbNasENgtm6SO3hC3,20,2.0,150.0,0.15,medium_short,1634.9000000059605,1.6349000000059604,1792.100000023842,1.792100000023842,True,True
GE4hogtdLdTFbNasENgtm6SO3hC3,20,3.0,600.0,0.6,medium_long,818.0,0.818,648.5999999940395,0.6485999999940395,True,True
GE4hogtdLdTFbNasENgtm6SO3hC3,20,4.0,300.0,0.3,medium_long,851.0999999940395,0.8510999999940395,882.4000000059605,0.8824000000059604,True,True
GE4hogtdLdTFbNasENgtm6SO3hC3,20,5.0,300.0,0.3,medium_long,898.3000000119209,0.8983000000119209,809.7999999821186,0.8097999999821186,True,True
GE4hogtdLdTFbNasENgtm6SO3hC3,20,6.0,600.0,0.6,medium_long,794.6999999880791,0.794699999988079,557.5999999940395,0.5575999999940395,True,True
GE4hogtdLdTFbNasENgtm6SO3hC3,20,7.0,300.0,0.3,medium_long,942.2999999821186,0.9422999999821186,883.0999999940395,0.8830999999940395,True,True
GE4hogtdLdTFbNasENgtm6SO3hC3,20,8.0,600.0,0.6,medium_long,840.9000000059605,0.8409000000059604,751.0,0.751,True,True
GE4hogtdLdTFbNasENgtm6SO3hC3,20,9.0,1200.0,1.2,long,1728.0999999940395,1.7280999999940396,798.7999999821186,0.7987999999821186,True,True
GE4hogtdLdTFbNasENgtm6SO3hC3,20,10.0,50.0,0.05,short,761.5999999940395,0.7615999999940395,969.2999999821186,0.9692999999821186,True,True
GE4hogtdLdTFbNasENgtm6SO3hC3,20,11.0,50.0,0.05,short,659.4000000059605,0.6594000000059604,850.0999999940395,0.8500999999940395,True,True
GE4hogtdLdTFbNasENgtm6SO3hC3,20,12.0,150.0,0.15,medium_short,690.2999999821186,0.6902999999821187,764.5,0.7645,True,True
GE4hogtdLdTFbNasENgtm6SO3hC3,20,13.0,50.0,0.05,short,663.5,0.6635,815.2999999821186,0.8152999999821187,True,True
GE4hogtdLdTFbNasENgtm6SO3hC3,20,14.0,1200.0,1.2,long,1058.0,1.058,891.5,0.8915,True,True
GE4hogtdLdTFbNasENgtm6SO3hC3,20,15.0,150.0,0.15,medium_short,1141.0,1.141,1288.5,1.2885,True,True
GE4hogtdLdTFbNasENgtm6SO3hC3,20,16.0,300.0,0.3,medium_long,859.6999999880791,0.8596999999880791,790.0999999940395,0.7900999999940396,True,True
GE4hogtdLdTFbNasENgtm6SO3hC3,20,17.0,1200.0,1.2,long,1683.0,1.683,815.0,0.815,True,True
GE4hogtdLdTFbNasENgtm6SO3hC3,20,18.0,600.0,0.6,medium_long,949.4000000059604,0.9494000000059604,688.0999999940395,0.6880999999940396,True,True
GE4hogtdLdTFbNasENgtm6SO3hC3,20,19.0,600.0,0.6,medium_long,999.1999999880792,0.9991999999880792,720.2000000178814,0.7202000000178814,True,True
GE4hogtdLdTFbNasENgtm6SO3hC3,20,20.0,50.0,0.05,short,716.7000000178814,0.7167000000178814,915.4000000059604,0.9154000000059603,True,True
GE4hogtdLdTFbNasENgtm6SO3hC3,20,21.0,600.0,0.6,medium_long,917.100000023842,0.917100000023842,630.1000000238419,0.6301000000238418,True,True
GE4hogtdLdTFbNasENgtm6SO3hC3,20,22.0,150.0,0.15,medium_short,641.4000000059605,0.6414000000059604,638.0,0.638,True,True
GE4hogtdLdTFbNasENgtm6SO3hC3,20,23.0,600.0,0.6,medium_long,1019.5,1.0195,620.5999999940395,0.6205999999940396,True,True
GE4hogtdLdTFbNasENgtm6SO3hC3,20,24.0,50.0,0.05,short,685.9000000059605,0.6859000000059605,853.6000000238419,0.8536000000238418,True,True
GE4hogtdLdTFbNasENgtm6SO3hC3,20,25.0,150.0,0.15,medium_short,764.3999999761581,0.7643999999761582,701.1000000238419,0.7011000000238419,True,True
GE4hogtdLdTFbNasENgtm6SO3hC3,20,26.0,50.0,0.05,short,895.6999999880791,0.895699999988079,898.0999999940395,0.8980999999940396,True,True
GE4hogtdLdTFbNasENgtm6SO3hC3,20,27.0,1200.0,1.2,long,1620.2999999821186,1.6202999999821186,527.8000000119209,0.527800000011921,True,True
GE4hogtdLdTFbNasENgtm6SO3hC3,20,28.0,300.0,0.3,medium_long,919.9000000059604,0.9199000000059604,709.0,0.709,True,True
GE4hogtdLdTFbNasENgtm6SO3hC3,20,29.0,1200.0,1.2,long,1727.199999988079,1.7271999999880792,615.0999999940395,0.6150999999940395,True,True
GE4hogtdLdTFbNasENgtm6SO3hC3,20,30.0,1200.0,1.2,long,1649.300000011921,1.649300000011921,638.7999999821186,0.6387999999821186,True,True
GE4hogtdLdTFbNasENgtm6SO3hC3,20,31.0,150.0,0.15,medium_short,1087.4000000059605,1.0874000000059605,1155.699999988079,1.155699999988079,True,True
GE4hogtdLdTFbNasENgtm6SO3hC3,20,32.0,300.0,0.3,medium_long,1028.0999999940395,1.0280999999940394,870.7999999821186,0.8707999999821187,True,True
GE4hogtdLdTFbNasENgtm6SO3hC3,20,33.0,50.0,0.05,short,1020.6999999880792,1.0206999999880793,1088.800000011921,1.088800000011921,True,True
GE4hogtdLdTFbNasENgtm6SO3hC3,20,34.0,50.0,0.05,short,924.7000000178814,0.9247000000178814,970.5,0.9705,True,True
GE4hogtdLdTFbNasENgtm6SO3hC3,20,35.0,600.0,0.6,medium_long,618.8000000119209,0.6188000000119209,881.6999999880791,0.881699999988079,True,True
GE4hogtdLdTFbNasENgtm6SO3hC3,20,36.0,600.0,0.6,medium_long,611.0999999940395,0.6110999999940395,522.5999999940395,0.5225999999940395,True,True
GE4hogtdLdTFbNasENgtm6SO3hC3,20,37.0,150.0,0.15,medium_short,779.5,0.7795,733.8000000119209,0.7338000000119209,True,True
GE4hogtdLdTFbNasENgtm6SO3hC3,20,38.0,1200.0,1.2,long,742.2999999821186,0.7422999999821186,426.09999999403954,0.4260999999940395,True,True
GE4hogtdLdTFbNasENgtm6SO3hC3,20,39.0,150.0,0.15,medium_short,981.1999999880792,0.9811999999880792,1022.5,1.0225,True,True
GE4hogtdLdTFbNasENgtm6SO3hC3,20,40.0,150.0,0.15,medium_short,980.9000000059604,0.9809000000059603,913.899999976158,0.913899999976158,True,True
GE4hogtdLdTFbNasENgtm6SO3hC3,20,41.0,300.0,0.3,medium_long,1127.7999999821186,1.1277999999821187,957.5999999940396,0.9575999999940397,True,True
GE4hogtdLdTFbNasENgtm6SO3hC3,20,42.0,600.0,0.6,medium_long,1114.800000011921,1.114800000011921,670.0,0.67,True,True
GE4hogtdLdTFbNasENgtm6SO3hC3,20,43.0,150.0,0.15,medium_short,1662.0999999940395,1.6620999999940396,1601.9000000059605,1.6019000000059604,True,True
GE4hogtdLdTFbNasENgtm6SO3hC3,20,44.0,150.0,0.15,medium_short,779.5,0.7795,753.3000000119209,0.7533000000119209,True,True
GE4hogtdLdTFbNasENgtm6SO3hC3,20,45.0,150.0,0.15,medium_short,844.5999999940395,0.8445999999940396,820.0999999940395,0.8200999999940395,True,True
GE4hogtdLdTFbNasENgtm6SO3hC3,20,46.0,50.0,0.05,short,812.1000000238419,0.8121000000238419,884.5,0.8845,True,True
GE4hogtdLdTFbNasENgtm6SO3hC3,20,47.0,150.0,0.15,medium_short,992.2000000178814,0.9922000000178814,984.8000000119208,0.9848000000119208,True,True
GE4hogtdLdTFbNasENgtm6SO3hC3,20,48.0,300.0,0.3,medium_long,1784.0,1.784,1727.7000000178814,1.7277000000178815,True,True
GE4hogtdLdTFbNasENgtm6SO3hC3,20,49.0,1200.0,1.2,long,1610.5,1.6105,620.5999999940395,0.6205999999940396,True,True
GE4hogtdLdTFbNasENgtm6SO3hC3,20,50.0,300.0,0.3,medium_long,1142.0,1.142,1038.199999988079,1.038199999988079,True,True
GE4hogtdLdTFbNasENgtm6SO3hC3,20,51.0,1200.0,1.2,long,1096.5999999940395,1.0965999999940395,560.7000000178814,0.5607000000178813,True,True
GE4hogtdLdTFbNasENgtm6SO3hC3,20,52.0,600.0,0.6,medium_long,1052.9000000059605,1.0529000000059605,639.2000000178814,0.6392000000178814,True,True
GE4hogtdLdTFbNasENgtm6SO3hC3,20,53.0,300.0,0.3,medium_long,774.0999999940395,0.7740999999940396,650.3000000119209,0.6503000000119209,True,True
GE4hogtdLdTFbNasENgtm6SO3hC3,20,54.0,600.0,0.6,medium_long,984.3000000119208,0.9843000000119209,552.4000000059605,0.5524000000059605,True,True
GE4hogtdLdTFbNasENgtm6SO3hC3,20,55.0,300.0,0.3,medium_long,943.0999999940396,0.9430999999940396,775.7000000178814,0.7757000000178814,True,True
GE4hogtdLdTFbNasENgtm6SO3hC3,20,56.0,1200.0,1.2,long,1693.9000000059605,1.6939000000059605,696.0999999940395,0.6960999999940395,True,True
GE4hogtdLdTFbNasENgtm6SO3hC3,20,57.0,600.0,0.6,medium_long,1551.699999988079,1.5516999999880792,1080.4000000059605,1.0804000000059604,True,True
GE4hogtdLdTFbNasENgtm6SO3hC3,20,58.0,600.0,0.6,medium_long,1079.5999999940395,1.0795999999940395,665.5999999940395,0.6655999999940395,True,True
GE4hogtdLdTFbNasENgtm6SO3hC3,20,59.0,1200.0,1.2,long,1606.9000000059605,1.6069000000059606,540.5999999940395,0.5405999999940395,True,True
GE4hogtdLdTFbNasENgtm6SO3hC3,20,60.0,50.0,0.05,short,1054.800000011921,1.0548000000119209,1083.0,1.083,True,True
GE4hogtdLdTFbNasENgtm6SO3hC3,20,61.0,600.0,0.6,medium_long,1162.7000000178814,1.1627000000178813,669.0,0.669,True,True
GE4hogtdLdTFbNasENgtm6SO3hC3,20,62.0,300.0,0.3,medium_long,805.0999999940395,0.8050999999940396,628.0,0.628,True,True
GE4hogtdLdTFbNasENgtm6SO3hC3,20,63.0,300.0,0.3,medium_long,1018.899999976158,1.018899999976158,820.2999999821186,0.8202999999821186,True,True
GE4hogtdLdTFbNasENgtm6SO3hC3,20,64.0,600.0,0.6,medium_long,971.9000000059604,0.9719000000059603,473.8999999761581,0.47389999997615806,True,True
GE4hogtdLdTFbNasENgtm6SO3hC3,20,65.0,50.0,0.05,short,583.0,0.583,637.4000000059605,0.6374000000059604,True,True
GE4hogtdLdTFbNasENgtm6SO3hC3,20,66.0,1200.0,1.2,long,1689.5,1.6895,623.0999999940395,0.6230999999940395,True,True
GE4hogtdLdTFbNasENgtm6SO3hC3,20,67.0,1200.0,1.2,long,1936.7999999821184,1.9367999999821184,855.5,0.8555,True,True
GE4hogtdLdTFbNasENgtm6SO3hC3,20,68.0,600.0,0.6,medium_long,959.6999999880792,0.9596999999880792,482.40000000596046,0.48240000000596045,True,True
GE4hogtdLdTFbNasENgtm6SO3hC3,20,70.0,150.0,0.15,medium_short,1780.800000011921,1.7808000000119208,1757.5,1.7575,True,True
GE4hogtdLdTFbNasENgtm6SO3hC3,20,71.0,1200.0,1.2,long,1657.399999976158,1.657399999976158,789.1999999880791,0.7891999999880791,True,True
GE4hogtdLdTFbNasENgtm6SO3hC3,20,72.0,600.0,0.6,medium_long,1320.0,1.32,852.5999999940395,0.8525999999940396,True,True
GE4hogtdLdTFbNasENgtm6SO3hC3,20,73.0,300.0,0.3,medium_long,798.4000000059605,0.7984000000059605,636.3000000119209,0.6363000000119209,True,True
GE4hogtdLdTFbNasENgtm6SO3hC3,20,74.0,300.0,0.3,medium_long,771.5,0.7715,627.0999999940395,0.6270999999940395,True,True
GE4hogtdLdTFbNasENgtm6SO3hC3,20,75.0,600.0,0.6,medium_long,1084.2999999821186,1.0842999999821186,623.0,0.623,True,True
GE4hogtdLdTFbNasENgtm6SO3hC3,20,76.0,50.0,0.05,short,960.6999999880792,0.9606999999880792,1051.5,1.0515,True,True
GE4hogtdLdTFbNasENgtm6SO3hC3,20,77.0,300.0,0.3,medium_long,1594.5,1.5945,1539.5,1.5395,True,True
GE4hogtdLdTFbNasENgtm6SO3hC3,20,78.0,150.0,0.15,medium_short,759.7000000178814,0.7597000000178814,703.6999999880791,0.7036999999880791,True,True
GE4hogtdLdTFbNasENgtm6SO3hC3,20,79.0,150.0,0.15,medium_short,1003.7999999821186,1.0037999999821186,952.7999999821186,0.9527999999821186,True,True
GE4hogtdLdTFbNasENgtm6SO3hC3,20,80.0,1200.0,1.2,long,1644.5,1.6445,559.5,0.5595,True,True
GE4hogtdLdTFbNasENgtm6SO3hC3,20,81.0,50.0,0.05,short,741.9000000059605,0.7419000000059605,802.0,0.802,True,True
GE4hogtdLdTFbNasENgtm6SO3hC3,20,82.0,50.0,0.05,short,1490.699999988079,1.490699999988079,1539.2000000178814,1.5392000000178814,True,True
GE4hogtdLdTFbNasENgtm6SO3hC3,20,83.0,50.0,0.05,short,1242.0,1.242,1288.0,1.288,True,True
GE4hogtdLdTFbNasENgtm6SO3hC3,20,84.0,1200.0,1.2,long,1601.5,1.6015,527.8000000119209,0.527800000011921,True,True
GE4hogtdLdTFbNasENgtm6SO3hC3,20,85.0,1200.0,1.2,long,1607.5999999940395,1.6075999999940396,559.0999999940395,0.5590999999940396,True,True
GE4hogtdLdTFbNasENgtm6SO3hC3,20,87.0,50.0,0.05,short,1829.5999999940395,1.8295999999940395,1903.5999999940395,1.9035999999940396,True,True
GE4hogtdLdTFbNasENgtm6SO3hC3,20,88.0,1200.0,1.2,long,1667.2999999821186,1.6672999999821185,600.1999999880791,0.600199999988079,True,True
GE4hogtdLdTFbNasENgtm6SO3hC3,20,89.0,50.0,0.05,short,2555.7999999821186,2.555799999982119,2623.9000000059605,2.6239000000059605,True,True
GE4hogtdLdTFbNasENgtm6SO3hC3,20,90.0,150.0,0.15,medium_short,1015.9000000059604,1.0159000000059604,919.0,0.919,True,True
GE4hogtdLdTFbNasENgtm6SO3hC3,20,91.0,1200.0,1.2,long,1591.5,1.5915,511.6999999880791,0.5116999999880791,True,True
GE4hogtdLdTFbNasENgtm6SO3hC3,20,92.0,50.0,0.05,short,693.7000000178814,0.6937000000178813,719.2000000178814,0.7192000000178814,True,True
GE4hogtdLdTFbNasENgtm6SO3hC3,20,93.0,600.0,0.6,medium_long,1008.5999999940396,1.0085999999940396,508.3000000119209,0.5083000000119209,True,True
GE4hogtdLdTFbNasENgtm6SO3hC3,20,94.0,300.0,0.3,medium_long,812.3000000119209,0.8123000000119209,603.5999999940395,0.6035999999940396,True,True
GE4hogtdLdTFbNasENgtm6SO3hC3,20,95.0,300.0,0.3,medium_long,1178.7999999821186,1.1787999999821186,992.4000000059604,0.9924000000059604,True,True
GE4hogtdLdTFbNasENgtm6SO3hC3,20,96.0,600.0,0.6,medium_long,1078.5999999940395,1.0785999999940394,581.4000000059605,0.5814000000059605,True,True
GE4hogtdLdTFbNasENgtm6SO3hC3,20,97.0,300.0,0.3,medium_long,861.6999999880791,0.8616999999880791,675.8000000119209,0.675800000011921,True,True
GE4hogtdLdTFbNasENgtm6SO3hC3,20,98.0,1200.0,1.2,long,1625.199999988079,1.625199999988079,502.8000000119209,0.5028000000119208,True,True
GE4hogtdLdTFbNasENgtm6SO3hC3,20,99.0,50.0,0.05,short,859.2999999821186,0.8592999999821186,917.6999999880792,0.9176999999880792,True,True
GE4hogtdLdTFbNasENgtm6SO3hC3,20,100.0,150.0,0.15,medium_short,912.0,0.912,1066.2000000178814,1.0662000000178813,True,True
GE4hogtdLdTFbNasENgtm6SO3hC3,20,101.0,150.0,0.15,medium_short,1075.9000000059605,1.0759000000059604,1016.5,1.0165,True,True
GE4hogtdLdTFbNasENgtm6SO3hC3,20,102.0,600.0,0.6,medium_long,1100.600000023842,1.100600000023842,622.5,0.6225,True,True
GE4hogtdLdTFbNasENgtm6SO3hC3,20,103.0,300.0,0.3,medium_long,918.2000000178814,0.9182000000178814,723.3000000119209,0.723300000011921,True,True
GE4hogtdLdTFbNasENgtm6SO3hC3,20,104.0,50.0,0.05,short,1066.2999999821186,1.0662999999821186,1111.9000000059605,1.1119000000059605,True,True
GE4hogtdLdTFbNasENgtm6SO3hC3,20,105.0,300.0,0.3,medium_long,750.9000000059605,0.7509000000059605,572.7000000178814,0.5727000000178813,True,True
GE4hogtdLdTFbNasENgtm6SO3hC3,20,106.0,1200.0,1.2,long,1795.9000000059605,1.7959000000059604,733.8000000119209,0.7338000000119209,True,True
GE4hogtdLdTFbNasENgtm6SO3hC3,20,107.0,50.0,0.05,short,961.7999999821186,0.9617999999821186,1035.100000023842,1.0351000000238422,True,True
GE4hogtdLdTFbNasENgtm6SO3hC3,20,108.0,150.0,0.15,medium_short,1742.0,1.742,1704.4000000059605,1.7044000000059605,True,True
GE4hogtdLdTFbNasENgtm6SO3hC3,20,109.0,300.0,0.3,medium_long,804.0999999940395,0.8040999999940396,621.2999999821186,0.6212999999821186,True,True
GE4hogtdLdTFbNasENgtm6SO3hC3,20,110.0,150.0,0.15,medium_short,753.5999999940395,0.7535999999940395,668.3000000119209,0.6683000000119209,True,True
GE4hogtdLdTFbNasENgtm6SO3hC3,20,111.0,600.0,0.6,medium_long,1242.2999999821186,1.2422999999821187,729.0999999940395,0.7290999999940395,True,True
GE4hogtdLdTFbNasENgtm6SO3hC3,20,112.0,600.0,0.6,medium_long,998.1999999880792,0.9981999999880792,501.59999999403954,0.5015999999940395,True,True
GE4hogtdLdTFbNasENgtm6SO3hC3,20,113.0,300.0,0.3,medium_long,1534.5999999940395,1.5345999999940396,1329.899999976158,1.3298999999761578,True,True
GE4hogtdLdTFbNasENgtm6SO3hC3,20,114.0,1200.0,1.2,long,1602.100000023842,1.6021000000238421,497.2000000178814,0.4972000000178814,True,True
GE4hogtdLdTFbNasENgtm6SO3hC3,20,115.0,150.0,0.15,medium_short,1193.5999999940395,1.1935999999940394,1134.600000023842,1.134600000023842,True,True
GE4hogtdLdTFbNasENgtm6SO3hC3,20,117.0,1200.0,1.2,long,1663.5,1.6635,585.5999999940395,0.5855999999940396,True,True
GE4hogtdLdTFbNasENgtm6SO3hC3,20,118.0,1200.0,1.2,long,1727.9000000059605,1.7279000000059606,652.7000000178814,0.6527000000178814,True,True
GE4hogtdLdTFbNasENgtm6SO3hC3,20,119.0,150.0,0.15,medium_short,1038.0999999940395,1.0380999999940395,1563.9000000059605,1.5639000000059604,True,True
Qv0jhW3sqicqQvd7LfReAsI7nD73,32,0.0,150.0,0.15,medium_short,1490.0,1.49,1318.2999999821186,1.3182999999821186,True,True
Qv0jhW3sqicqQvd7LfReAsI7nD73,32,1.0,1200.0,1.2,long,1902.0,1.902,698.8999999761581,0.6988999999761581,True,True
Qv0jhW3sqicqQvd7LfReAsI7nD73,32,2.0,150.0,0.15,medium_short,1171.2000000178814,1.1712000000178815,1007.0,1.007,True,True
Qv0jhW3sqicqQvd7LfReAsI7nD73,32,3.0,50.0,0.05,short,1029.2000000178814,1.0292000000178814,927.7999999821186,0.9277999999821186,True,True
Qv0jhW3sqicqQvd7LfReAsI7nD73,32,4.0,300.0,0.3,medium_long,1389.5,1.3895,1038.0999999940395,1.0380999999940395,True,True
Qv0jhW3sqicqQvd7LfReAsI7nD73,32,5.0,150.0,0.15,medium_short,1034.5,1.0345,843.4000000059605,0.8434000000059605,True,True
Qv0jhW3sqicqQvd7LfReAsI7nD73,32,6.0,150.0,0.15,medium_short,1031.4000000059605,1.0314000000059604,869.4000000059605,0.8694000000059605,True,True
Qv0jhW3sqicqQvd7LfReAsI7nD73,32,7.0,600.0,0.6,medium_long,1229.899999976158,1.229899999976158,602.6999999880791,0.6026999999880791,True,True
Qv0jhW3sqicqQvd7LfReAsI7nD73,32,8.0,1200.0,1.2,long,1704.5999999940395,1.7045999999940395,495.8999999761581,0.4958999999761581,True,True
Qv0jhW3sqicqQvd7LfReAsI7nD73,32,9.0,300.0,0.3,medium_long,1098.5,1.0985,778.5999999940395,0.7785999999940395,True,True
Qv0jhW3sqicqQvd7LfReAsI7nD73,32,10.0,150.0,0.15,medium_short,1043.0999999940395,1.0430999999940396,859.1999999880791,0.859199999988079,True,True
Qv0jhW3sqicqQvd7LfReAsI7nD73,32,11.0,600.0,0.6,medium_long,1312.0999999940395,1.3120999999940395,697.7000000178814,0.6977000000178813,True,True
Qv0jhW3sqicqQvd7LfReAsI7nD73,32,12.0,50.0,0.05,short,1308.600000023842,1.308600000023842,1234.2999999821186,1.2342999999821187,True,True
Qv0jhW3sqicqQvd7LfReAsI7nD73,32,13.0,300.0,0.3,medium_long,1125.5,1.1255,801.7000000178814,0.8017000000178814,True,True
Qv0jhW3sqicqQvd7LfReAsI7nD73,32,14.0,300.0,0.3,medium_long,1147.7999999821186,1.1477999999821187,826.0,0.826,True,True
Qv0jhW3sqicqQvd7LfReAsI7nD73,32,15.0,1200.0,1.2,long,1755.300000011921,1.755300000011921,489.59999999403954,0.4895999999940395,True,True
Qv0jhW3sqicqQvd7LfReAsI7nD73,32,16.0,300.0,0.3,medium_long,1109.5,1.1095,804.6999999880791,0.8046999999880791,True,True
Qv0jhW3sqicqQvd7LfReAsI7nD73,32,17.0,150.0,0.15,medium_short,897.8000000119209,0.897800000011921,711.4000000059605,0.7114000000059605,True,True
Qv0jhW3sqicqQvd7LfReAsI7nD73,32,18.0,1200.0,1.2,long,1608.100000023842,1.6081000000238421,385.8000000119209,0.3858000000119209,True,True
Qv0jhW3sqicqQvd7LfReAsI7nD73,32,19.0,1200.0,1.2,long,1672.7999999821186,1.6727999999821186,440.0,0.44,True,True
Qv0jhW3sqicqQvd7LfReAsI7nD73,32,20.0,1200.0,1.2,long,1632.600000023842,1.632600000023842,417.0,0.417,True,True
Qv0jhW3sqicqQvd7LfReAsI7nD73,32,21.0,50.0,0.05,short,1056.399999976158,1.056399999976158,996.5,0.9965,True,True
Qv0jhW3sqicqQvd7LfReAsI7nD73,32,22.0,600.0,0.6,medium_long,1146.9000000059605,1.1469000000059604,503.0,0.503,True,True
Qv0jhW3sqicqQvd7LfReAsI7nD73,32,23.0,50.0,0.05,short,740.5,0.7405,666.8000000119209,0.666800000011921,True,True
Qv0jhW3sqicqQvd7LfReAsI7nD73,32,24.0,150.0,0.15,medium_short,1333.199999988079,1.333199999988079,1160.2999999821186,1.1602999999821186,True,True
Qv0jhW3sqicqQvd7LfReAsI7nD73,32,25.0,1200.0,1.2,long,1659.0999999940395,1.6590999999940395,456.59999999403954,0.45659999999403955,True,True
Qv0jhW3sqicqQvd7LfReAsI7nD73,32,26.0,50.0,0.05,short,1166.7999999821186,1.1667999999821186,1139.5999999940395,1.1395999999940396,True,True
Qv0jhW3sqicqQvd7LfReAsI7nD73,32,27.0,600.0,0.6,medium_long,1187.0999999940395,1.1870999999940395,561.0,0.561,True,True
Qv0jhW3sqicqQvd7LfReAsI7nD73,32,28.0,1200.0,1.2,long,1684.4000000059605,1.6844000000059605,445.2999999821186,0.4452999999821186,True,True
Qv0jhW3sqicqQvd7LfReAsI7nD73,32,29.0,1200.0,1.2,long,2129.4000000059605,2.1294000000059605,899.4000000059605,0.8994000000059604,True,True
Qv0jhW3sqicqQvd7LfReAsI7nD73,32,30.0,50.0,0.05,short,1437.199999988079,1.4371999999880791,1334.5,1.3345,True,True
Qv0jhW3sqicqQvd7LfReAsI7nD73,32,31.0,1200.0,1.2,long,1717.5,1.7175,495.40000000596046,0.49540000000596046,True,True
Qv0jhW3sqicqQvd7LfReAsI7nD73,32,32.0,600.0,0.6,medium_long,1191.0999999940395,1.1910999999940395,541.3000000119209,0.5413000000119209,True,True
Qv0jhW3sqicqQvd7LfReAsI7nD73,32,33.0,150.0,0.15,medium_short,978.5,0.9785,786.2999999821186,0.7862999999821186,True,True
Qv0jhW3sqicqQvd7LfReAsI7nD73,32,34.0,150.0,0.15,medium_short,855.7000000178814,0.8557000000178814,664.3000000119209,0.6643000000119209,True,True
Qv0jhW3sqicqQvd7LfReAsI7nD73,32,35.0,600.0,0.6,medium_long,1097.0,1.097,463.2000000178814,0.4632000000178814,True,True
Qv0jhW3sqicqQvd7LfReAsI7nD73,32,36.0,50.0,0.05,short,1217.7999999821186,1.2177999999821185,1143.300000011921,1.143300000011921,True,True
Qv0jhW3sqicqQvd7LfReAsI7nD73,32,37.0,300.0,0.3,medium_long,850.3000000119209,0.850300000011921,515.6999999880791,0.515699999988079,True,True
Qv0jhW3sqicqQvd7LfReAsI7nD73,32,38.0,50.0,0.05,short,1427.5,1.4275,1335.300000011921,1.3353000000119208,True,True
Qv0jhW3sqicqQvd7LfReAsI7nD73,32,39.0,150.0,0.15,medium_short,868.5,0.8685,718.2999999821186,0.7182999999821186,True,True
Qv0jhW3sqicqQvd7LfReAsI7nD73,32,40.0,150.0,0.15,medium_short,726.0,0.726,550.1999999880791,0.5501999999880791,True,True
Qv0jhW3sqicqQvd7LfReAsI7nD73,32,41.0,1200.0,1.2,long,1668.5,1.6685,421.09999999403954,0.4210999999940395,True,True
Qv0jhW3sqicqQvd7LfReAsI7nD73,32,42.0,300.0,0.3,medium_long,1019.3000000119208,1.0193000000119208,716.4000000059605,0.7164000000059605,True,True
Qv0jhW3sqicqQvd7LfReAsI7nD73,32,43.0,150.0,0.15,medium_short,942.4000000059604,0.9424000000059604,753.3999999761581,0.7533999999761581,True,True
Qv0jhW3sqicqQvd7LfReAsI7nD73,32,44.0,600.0,0.6,medium_long,1185.100000023842,1.185100000023842,576.5999999940395,0.5765999999940395,True,True
Qv0jhW3sqicqQvd7LfReAsI7nD73,32,45.0,150.0,0.15,medium_short,1035.899999976158,1.035899999976158,837.2999999821186,0.8372999999821186,True,True
Qv0jhW3sqicqQvd7LfReAsI7nD73,32,46.0,50.0,0.05,short,855.3000000119209,0.855300000011921,785.8000000119209,0.785800000011921,True,True
Qv0jhW3sqicqQvd7LfReAsI7nD73,32,47.0,150.0,0.15,medium_short,1057.0,1.057,870.5999999940395,0.8705999999940396,True,True
Qv0jhW3sqicqQvd7LfReAsI7nD73,32,48.0,600.0,0.6,medium_long,1132.4000000059605,1.1324000000059604,534.6000000238419,0.5346000000238419,True,True
Qv0jhW3sqicqQvd7LfReAsI7nD73,32,49.0,50.0,0.05,short,1420.7999999821186,1.4207999999821186,1331.5,1.3315,True,True
Qv0jhW3sqicqQvd7LfReAsI7nD73,32,50.0,300.0,0.3,medium_long,1165.600000023842,1.165600000023842,835.9000000059605,0.8359000000059604,True,True
Qv0jhW3sqicqQvd7LfReAsI7nD73,32,51.0,50.0,0.05,short,859.6000000238419,0.8596000000238418,797.0,0.797,True,True
Qv0jhW3sqicqQvd7LfReAsI7nD73,32,52.0,1200.0,1.2,long,2009.9000000059605,2.0099000000059606,775.6999999880791,0.775699999988079,True,True
Qv0jhW3sqicqQvd7LfReAsI7nD73,32,53.0,600.0,0.6,medium_long,1039.7999999821186,1.0397999999821186,391.59999999403954,0.39159999999403955,True,True
Qv0jhW3sqicqQvd7LfReAsI7nD73,32,54.0,150.0,0.15,medium_short,1402.5,1.4025,1214.9000000059605,1.2149000000059604,True,True
Qv0jhW3sqicqQvd7LfReAsI7nD73,32,55.0,600.0,0.6,medium_long,1547.199999988079,1.547199999988079,938.7999999821186,0.9387999999821186,True,True
Qv0jhW3sqicqQvd7LfReAsI7nD73,32,57.0,50.0,0.05,short,954.0,0.954,848.2999999821186,0.8482999999821186,True,True
Qv0jhW3sqicqQvd7LfReAsI7nD73,32,58.0,50.0,0.05,short,1390.0,1.39,1300.199999988079,1.3001999999880791,True,True
Qv0jhW3sqicqQvd7LfReAsI7nD73,32,59.0,600.0,0.6,medium_long,1162.199999988079,1.162199999988079,553.7999999821186,0.5537999999821186,True,True
Qv0jhW3sqicqQvd7LfReAsI7nD73,32,60.0,300.0,0.3,medium_long,1234.5999999940395,1.2345999999940396,1189.7000000178814,1.1897000000178815,True,True
Qv0jhW3sqicqQvd7LfReAsI7nD73,32,61.0,150.0,0.15,medium_short,1471.699999988079,1.471699999988079,1270.800000011921,1.2708000000119208,True,True
Qv0jhW3sqicqQvd7LfReAsI7nD73,32,62.0,600.0,0.6,medium_long,1079.5999999940395,1.0795999999940395,432.0,0.432,True,True
Qv0jhW3sqicqQvd7LfReAsI7nD73,32,63.0,600.0,0.6,medium_long,1124.0,1.124,520.8999999761581,0.5208999999761581,True,True
Qv0jhW3sqicqQvd7LfReAsI7nD73,32,64.0,50.0,0.05,short,775.0999999940395,0.7750999999940396,704.7999999821186,0.7047999999821186,True,True
Qv0jhW3sqicqQvd7LfReAsI7nD73,32,65.0,50.0,0.05,short,885.5999999940395,0.8855999999940395,827.1999999880791,0.827199999988079,True,True
Qv0jhW3sqicqQvd7LfReAsI7nD73,32,66.0,1200.0,1.2,long,1706.7999999821186,1.7067999999821186,477.3000000119209,0.47730000001192086,True,True
Qv0jhW3sqicqQvd7LfReAsI7nD73,32,67.0,300.0,0.3,medium_long,1024.100000023842,1.024100000023842,720.4000000059605,0.7204000000059605,True,True
Qv0jhW3sqicqQvd7LfReAsI7nD73,32,68.0,1200.0,1.2,long,1690.5,1.6905,468.5,0.4685,True,True
Qv0jhW3sqicqQvd7LfReAsI7nD73,32,69.0,50.0,0.05,short,705.2000000178814,0.7052000000178814,649.0999999940395,0.6490999999940396,True,True
Qv0jhW3sqicqQvd7LfReAsI7nD73,32,70.0,300.0,0.3,medium_long,780.2000000178814,0.7802000000178814,472.40000000596046,0.47240000000596044,True,True
Qv0jhW3sqicqQvd7LfReAsI7nD73,32,71.0,1200.0,1.2,long,1601.5999999940395,1.6015999999940396,368.5,0.3685,True,True
Qv0jhW3sqicqQvd7LfReAsI7nD73,32,72.0,600.0,0.6,medium_long,996.399999976158,0.996399999976158,370.90000000596046,0.37090000000596046,True,True
Qv0jhW3sqicqQvd7LfReAsI7nD73,32,73.0,300.0,0.3,medium_long,1400.7999999821186,1.4007999999821186,1093.7999999821186,1.0937999999821186,True,True
Qv0jhW3sqicqQvd7LfReAsI7nD73,32,74.0,50.0,0.05,short,689.3999999761581,0.6893999999761582,599.2999999821186,0.5992999999821186,True,True
Qv0jhW3sqicqQvd7LfReAsI7nD73,32,75.0,150.0,0.15,medium_short,925.7000000178814,0.9257000000178814,754.9000000059605,0.7549000000059605,True,True
Qv0jhW3sqicqQvd7LfReAsI7nD73,32,76.0,300.0,0.3,medium_long,890.8999999761581,0.8908999999761581,531.5999999940395,0.5315999999940395,True,True
Qv0jhW3sqicqQvd7LfReAsI7nD73,32,77.0,150.0,0.15,medium_short,547.8999999761581,0.5478999999761581,1390.2999999821186,1.3902999999821186,True,True
Qv0jhW3sqicqQvd7LfReAsI7nD73,32,78.0,300.0,0.3,medium_long,898.8000000119209,0.898800000011921,612.9000000059605,0.6129000000059605,True,True
Qv0jhW3sqicqQvd7LfReAsI7nD73,32,79.0,300.0,0.3,medium_long,1177.4000000059605,1.1774000000059606,1138.0,1.138,True,True
Qv0jhW3sqicqQvd7LfReAsI7nD73,32,80.0,600.0,0.6,medium_long,1234.300000011921,1.2343000000119209,638.2999999821186,0.6382999999821186,True,True
Qv0jhW3sqicqQvd7LfReAsI7nD73,32,81.0,150.0,0.15,medium_short,1032.5,1.0325,878.2000000178814,0.8782000000178813,True,True
Qv0jhW3sqicqQvd7LfReAsI7nD73,32,82.0,600.0,0.6,medium_long,1047.0999999940395,1.0470999999940396,413.5,0.4135,True,True
Qv0jhW3sqicqQvd7LfReAsI7nD73,32,83.0,1200.0,1.2,long,1682.4000000059605,1.6824000000059605,458.90000000596046,0.4589000000059605,True,True
Qv0jhW3sqicqQvd7LfReAsI7nD73,32,84.0,600.0,0.6,medium_long,1223.0,1.223,584.1999999880791,0.584199999988079,True,True
Qv0jhW3sqicqQvd7LfReAsI7nD73,32,85.0,50.0,0.05,short,856.0,0.856,790.2999999821186,0.7902999999821186,True,True
Qv0jhW3sqicqQvd7LfReAsI7nD73,32,86.0,600.0,0.6,medium_long,1543.0,1.543,928.7000000178814,0.9287000000178814,True,True
Qv0jhW3sqicqQvd7LfReAsI7nD73,32,87.0,300.0,0.3,medium_long,1251.9000000059605,1.2519000000059604,1265.399999976158,1.2653999999761578,True,True
Qv0jhW3sqicqQvd7LfReAsI7nD73,32,88.0,600.0,0.6,medium_long,1039.199999988079,1.039199999988079,471.1999999880791,0.47119999998807915,True,True
Qv0jhW3sqicqQvd7LfReAsI7nD73,32,89.0,300.0,0.3,medium_long,958.4000000059604,0.9584000000059604,1029.7999999821186,1.0297999999821186,True,True
Qv0jhW3sqicqQvd7LfReAsI7nD73,32,90.0,300.0,0.3,medium_long,1129.699999988079,1.129699999988079,792.0999999940395,0.7920999999940396,True,True
Qv0jhW3sqicqQvd7LfReAsI7nD73,32,91.0,600.0,0.6,medium_long,1087.699999988079,1.087699999988079,440.7999999821186,0.4407999999821186,True,True
Qv0jhW3sqicqQvd7LfReAsI7nD73,32,92.0,1200.0,1.2,long,1649.0,1.649,393.0,0.393,True,True
Qv0jhW3sqicqQvd7LfReAsI7nD73,32,93.0,1200.0,1.2,long,1648.4000000059605,1.6484000000059604,440.6999999880791,0.4406999999880791,True,True
Qv0jhW3sqicqQvd7LfReAsI7nD73,32,94.0,600.0,0.6,medium_long,1101.2999999821186,1.1012999999821187,485.6999999880791,0.4856999999880791,True,True
Qv0jhW3sqicqQvd7LfReAsI7nD73,32,95.0,1200.0,1.2,long,1774.0999999940395,1.7740999999940394,587.9000000059605,0.5879000000059604,True,True
Qv0jhW3sqicqQvd7LfReAsI7nD73,32,96.0,150.0,0.15,medium_short,905.5999999940396,0.9055999999940396,732.7999999821186,0.7327999999821186,True,True
Qv0jhW3sqicqQvd7LfReAsI7nD73,32,97.0,600.0,0.6,medium_long,1106.300000011921,1.106300000011921,475.90000000596046,0.47590000000596044,True,True
Qv0jhW3sqicqQvd7LfReAsI7nD73,32,98.0,300.0,0.3,medium_long,821.0999999940395,0.8210999999940395,518.5999999940395,0.5185999999940395,True,True
Qv0jhW3sqicqQvd7LfReAsI7nD73,32,99.0,50.0,0.05,short,1166.2999999821186,1.1662999999821186,1067.5999999940395,1.0675999999940395,True,True
Qv0jhW3sqicqQvd7LfReAsI7nD73,32,100.0,1200.0,1.2,long,1727.0,1.727,502.59999999403954,0.5025999999940395,True,True
Qv0jhW3sqicqQvd7LfReAsI7nD73,32,101.0,1200.0,1.2,long,1740.800000011921,1.740800000011921,493.7999999821186,0.4937999999821186,True,True
Qv0jhW3sqicqQvd7LfReAsI7nD73,32,102.0,150.0,0.15,medium_short,1205.4000000059605,1.2054000000059604,1187.5,1.1875,True,True
Qv0jhW3sqicqQvd7LfReAsI7nD73,32,103.0,150.0,0.15,medium_short,789.4000000059605,0.7894000000059604,630.5999999940395,0.6305999999940395,True,True
Qv0jhW3sqicqQvd7LfReAsI7nD73,32,104.0,150.0,0.15,medium_short,729.8000000119209,0.7298000000119209,558.2000000178814,0.5582000000178814,True,True
Qv0jhW3sqicqQvd7LfReAsI7nD73,32,105.0,300.0,0.3,medium_long,965.0999999940396,0.9650999999940396,697.3000000119209,0.6973000000119209,True,True
Qv0jhW3sqicqQvd7LfReAsI7nD73,32,106.0,300.0,0.3,medium_long,1081.399999976158,1.0813999999761579,1050.9000000059605,1.0509000000059605,True,True
Qv0jhW3sqicqQvd7LfReAsI7nD73,32,107.0,1200.0,1.2,long,1787.2999999821186,1.7872999999821186,750.6999999880791,0.7506999999880791,True,True
Qv0jhW3sqicqQvd7LfReAsI7nD73,32,108.0,300.0,0.3,medium_long,918.9000000059604,0.9189000000059604,655.5,0.6555,True,True
Qv0jhW3sqicqQvd7LfReAsI7nD73,32,109.0,600.0,0.6,medium_long,1314.4000000059605,1.3144000000059604,830.9000000059605,0.8309000000059604,True,True
Qv0jhW3sqicqQvd7LfReAsI7nD73,32,110.0,150.0,0.15,medium_short,633.9000000059605,0.6339000000059605,633.5999999940395,0.6335999999940395,True,True
Qv0jhW3sqicqQvd7LfReAsI7nD73,32,111.0,1200.0,1.2,long,1469.7999999821186,1.4697999999821185,638.6999999880791,0.638699999988079,True,True
Qv0jhW3sqicqQvd7LfReAsI7nD73,32,112.0,50.0,0.05,short,442.59999999403954,0.44259999999403954,644.7000000178814,0.6447000000178814,True,True
Qv0jhW3sqicqQvd7LfReAsI7nD73,32,113.0,50.0,0.05,short,512.6999999880791,0.512699999988079,1092.600000023842,1.092600000023842,True,True
Qv0jhW3sqicqQvd7LfReAsI7nD73,32,114.0,300.0,0.3,medium_long,1094.199999988079,1.0941999999880792,1247.2999999821186,1.2472999999821186,True,True
Qv0jhW3sqicqQvd7LfReAsI7nD73,32,115.0,50.0,0.05,short,559.5999999940395,0.5595999999940395,535.6999999880791,0.535699999988079,True,True
Qv0jhW3sqicqQvd7LfReAsI7nD73,32,116.0,300.0,0.3,medium_long,816.6999999880791,0.8166999999880791,567.5,0.5675,True,True
Qv0jhW3sqicqQvd7LfReAsI7nD73,32,117.0,600.0,0.6,medium_long,1053.5,1.0535,459.90000000596046,0.4599000000059605,True,True
Qv0jhW3sqicqQvd7LfReAsI7nD73,32,118.0,1200.0,1.2,long,1697.4000000059605,1.6974000000059604,556.5999999940395,0.5565999999940395,True,True
Qv0jhW3sqicqQvd7LfReAsI7nD73,32,119.0,50.0,0.05,short,822.0999999940395,0.8220999999940395,796.9000000059605,0.7969000000059605,True,True
ORvIk1xRWIQmKuLVe6GXNouvAXx2,28,0.0,50.0,0.05,short,1014.0,1.014,1195.5,1.1955,True,True
ORvIk1xRWIQmKuLVe6GXNouvAXx2,28,1.0,150.0,0.15,medium_short,708.1000000238419,0.7081000000238419,826.2000000476837,0.8262000000476837,True,True
ORvIk1xRWIQmKuLVe6GXNouvAXx2,28,2.0,1200.0,1.2,long,661.3999999761581,0.6613999999761582,678.3999999761581,0.6783999999761582,True,True
ORvIk1xRWIQmKuLVe6GXNouvAXx2,28,4.0,300.0,0.3,medium_long,924.1999999284744,0.9241999999284745,1095.899999976158,1.0958999999761578,True,True
ORvIk1xRWIQmKuLVe6GXNouvAXx2,28,5.0,1200.0,1.2,long,972.8000000715256,0.9728000000715256,1016.5,1.0165,True,True
ORvIk1xRWIQmKuLVe6GXNouvAXx2,28,6.0,1200.0,1.2,long,1059.5,1.0595,977.6999999284744,0.9776999999284745,True,True
ORvIk1xRWIQmKuLVe6GXNouvAXx2,28,7.0,600.0,0.6,medium_long,1131.0999999046326,1.1310999999046325,1106.399999976158,1.106399999976158,True,True
ORvIk1xRWIQmKuLVe6GXNouvAXx2,28,8.0,150.0,0.15,medium_short,786.7999999523163,0.7867999999523163,988.0,0.988,True,True
ORvIk1xRWIQmKuLVe6GXNouvAXx2,28,9.0,50.0,0.05,short,843.4000000953674,0.8434000000953674,1030.399999976158,1.030399999976158,True,True
ORvIk1xRWIQmKuLVe6GXNouvAXx2,28,10.0,600.0,0.6,medium_long,764.5,0.7645,546.5,0.5465,True,True
ORvIk1xRWIQmKuLVe6GXNouvAXx2,28,11.0,300.0,0.3,medium_long,628.0,0.628,637.6000000238419,0.6376000000238419,True,True
ORvIk1xRWIQmKuLVe6GXNouvAXx2,28,12.0,600.0,0.6,medium_long,727.4000000953674,0.7274000000953674,498.8000000715256,0.4988000000715256,True,True
ORvIk1xRWIQmKuLVe6GXNouvAXx2,28,13.0,50.0,0.05,short,1213.5,1.2135,2068.3000000715256,2.0683000000715257,True,True
ORvIk1xRWIQmKuLVe6GXNouvAXx2,28,15.0,1200.0,1.2,long,851.3000000715256,0.8513000000715256,646.7999999523163,0.6467999999523163,True,True
ORvIk1xRWIQmKuLVe6GXNouvAXx2,28,17.0,600.0,0.6,medium_long,1400.600000023842,1.400600000023842,1250.3000000715256,1.2503000000715256,True,True
ORvIk1xRWIQmKuLVe6GXNouvAXx2,28,18.0,50.0,0.05,short,652.8999999761581,0.6528999999761581,972.6999999284744,0.9726999999284744,True,True
ORvIk1xRWIQmKuLVe6GXNouvAXx2,28,19.0,1200.0,1.2,long,1012.5,1.0125,506.1999999284744,0.5061999999284744,True,True
ORvIk1xRWIQmKuLVe6GXNouvAXx2,28,20.0,300.0,0.3,medium_long,636.0,0.636,1453.5,1.4535,True,True
ORvIk1xRWIQmKuLVe6GXNouvAXx2,28,21.0,1200.0,1.2,long,899.6000000238419,0.8996000000238419,506.09999990463257,0.5060999999046326,True,True
ORvIk1xRWIQmKuLVe6GXNouvAXx2,28,22.0,300.0,0.3,medium_long,1144.6999999284744,1.1446999999284744,1710.7999999523165,1.7107999999523165,True,True
ORvIk1xRWIQmKuLVe6GXNouvAXx2,28,23.0,600.0,0.6,medium_long,1493.899999976158,1.493899999976158,1396.5,1.3965,True,True
ORvIk1xRWIQmKuLVe6GXNouvAXx2,28,24.0,50.0,0.05,short,791.6000000238419,0.7916000000238419,1530.9000000953674,1.5309000000953674,True,True
ORvIk1xRWIQmKuLVe6GXNouvAXx2,28,25.0,150.0,0.15,medium_short,876.3000000715256,0.8763000000715255,1326.0,1.326,True,True
ORvIk1xRWIQmKuLVe6GXNouvAXx2,28,26.0,600.0,0.6,medium_long,635.1000000238419,0.6351000000238418,548.1999999284744,0.5481999999284745,True,True
ORvIk1xRWIQmKuLVe6GXNouvAXx2,28,27.0,150.0,0.15,medium_short,586.0999999046326,0.5860999999046326,1184.100000023842,1.1841000000238422,True,True
ORvIk1xRWIQmKuLVe6GXNouvAXx2,28,28.0,1200.0,1.2,long,927.899999976158,0.927899999976158,474.8000000715256,0.47480000007152556,True,True
ORvIk1xRWIQmKuLVe6GXNouvAXx2,28,29.0,300.0,0.3,medium_long,742.7999999523163,0.7427999999523163,759.3999999761581,0.7593999999761581,True,True
ORvIk1xRWIQmKuLVe6GXNouvAXx2,28,30.0,50.0,0.05,short,657.3999999761581,0.6573999999761582,894.2000000476837,0.8942000000476837,True,True
ORvIk1xRWIQmKuLVe6GXNouvAXx2,28,31.0,1200.0,1.2,long,536.1000000238419,0.5361000000238418,428.10000002384186,0.42810000002384185,True,True
ORvIk1xRWIQmKuLVe6GXNouvAXx2,28,33.0,600.0,0.6,medium_long,559.0,0.559,690.5,0.6905,True,True
ORvIk1xRWIQmKuLVe6GXNouvAXx2,28,34.0,300.0,0.3,medium_long,490.5,0.4905,670.0,0.67,True,True
ORvIk1xRWIQmKuLVe6GXNouvAXx2,28,35.0,600.0,0.6,medium_long,635.1000000238419,0.6351000000238418,405.5,0.4055,True,True
ORvIk1xRWIQmKuLVe6GXNouvAXx2,28,36.0,1200.0,1.2,long,828.0,0.828,547.2999999523163,0.5472999999523163,True,True
ORvIk1xRWIQmKuLVe6GXNouvAXx2,28,37.0,600.0,0.6,medium_long,751.8999999761581,0.7518999999761582,471.10000002384186,0.47110000002384184,True,True
ORvIk1xRWIQmKuLVe6GXNouvAXx2,28,38.0,150.0,0.15,medium_short,690.9000000953674,0.6909000000953675,775.5,0.7755,True,True
ORvIk1xRWIQmKuLVe6GXNouvAXx2,28,40.0,300.0,0.3,medium_long,539.0,0.539,1259.5,1.2595,True,True
ORvIk1xRWIQmKuLVe6GXNouvAXx2,28,41.0,300.0,0.3,medium_long,697.1999999284744,0.6971999999284745,1758.3000000715256,1.7583000000715256,True,True
ORvIk1xRWIQmKuLVe6GXNouvAXx2,28,42.0,600.0,0.6,medium_long,845.0,0.845,874.9000000953674,0.8749000000953674,True,True
ORvIk1xRWIQmKuLVe6GXNouvAXx2,28,43.0,150.0,0.15,medium_short,580.0,0.58,716.5,0.7165,True,True
ORvIk1xRWIQmKuLVe6GXNouvAXx2,28,44.0,600.0,0.6,medium_long,508.3000000715256,0.5083000000715255,318.60000002384186,0.31860000002384187,True,True
ORvIk1xRWIQmKuLVe6GXNouvAXx2,28,45.0,600.0,0.6,medium_long,655.0,0.655,539.8999999761581,0.5398999999761581,True,True
ORvIk1xRWIQmKuLVe6GXNouvAXx2,28,46.0,300.0,0.3,medium_long,573.2000000476837,0.5732000000476837,597.2000000476837,0.5972000000476837,True,True
ORvIk1xRWIQmKuLVe6GXNouvAXx2,28,47.0,150.0,0.15,medium_short,1819.6999999284744,1.8196999999284744,2310.8000000715256,2.3108000000715254,True,True
ORvIk1xRWIQmKuLVe6GXNouvAXx2,28,48.0,600.0,0.6,medium_long,1334.3000000715256,1.3343000000715255,1376.399999976158,1.3763999999761578,True,True
ORvIk1xRWIQmKuLVe6GXNouvAXx2,28,49.0,600.0,0.6,medium_long,520.1000000238419,0.5201000000238418,464.2999999523163,0.4642999999523163,True,True
ORvIk1xRWIQmKuLVe6GXNouvAXx2,28,50.0,300.0,0.3,medium_long,1252.2000000476835,1.2522000000476834,1417.3000000715256,1.4173000000715257,True,True
ORvIk1xRWIQmKuLVe6GXNouvAXx2,28,51.0,600.0,0.6,medium_long,778.5999999046326,0.7785999999046326,507.5,0.5075,True,True
ORvIk1xRWIQmKuLVe6GXNouvAXx2,28,52.0,1200.0,1.2,long,600.1000000238419,0.6001000000238419,464.9000000953674,0.46490000009536736,True,True
ORvIk1xRWIQmKuLVe6GXNouvAXx2,28,53.0,600.0,0.6,medium_long,663.2000000476837,0.6632000000476838,421.5,0.4215,True,True
ORvIk1xRWIQmKuLVe6GXNouvAXx2,28,54.0,1200.0,1.2,long,488.2999999523163,0.48829999995231627,451.0,0.451,True,True
ORvIk1xRWIQmKuLVe6GXNouvAXx2,28,56.0,50.0,0.05,short,834.5999999046326,0.8345999999046325,996.0999999046326,0.9960999999046326,True,True
ORvIk1xRWIQmKuLVe6GXNouvAXx2,28,57.0,300.0,0.3,medium_long,476.7999999523163,0.4767999999523163,618.8999999761581,0.6188999999761582,True,True
ORvIk1xRWIQmKuLVe6GXNouvAXx2,28,58.0,50.0,0.05,short,1112.0,1.112,1445.5,1.4455,True,True
ORvIk1xRWIQmKuLVe6GXNouvAXx2,28,59.0,1200.0,1.2,long,591.7000000476837,0.5917000000476837,320.09999990463257,0.32009999990463256,True,True
ORvIk1xRWIQmKuLVe6GXNouvAXx2,28,60.0,150.0,0.15,medium_short,565.8999999761581,0.5658999999761581,708.5999999046326,0.7085999999046325,True,True
ORvIk1xRWIQmKuLVe6GXNouvAXx2,28,61.0,50.0,0.05,short,426.7000000476837,0.4267000000476837,593.5,0.5935,True,True
ORvIk1xRWIQmKuLVe6GXNouvAXx2,28,62.0,150.0,0.15,medium_short,490.5,0.4905,505.0,0.505,True,True
ORvIk1xRWIQmKuLVe6GXNouvAXx2,28,63.0,50.0,0.05,short,918.100000023842,0.918100000023842,985.1999999284744,0.9851999999284744,True,True
ORvIk1xRWIQmKuLVe6GXNouvAXx2,28,65.0,300.0,0.3,medium_long,828.0,0.828,730.0,0.73,True,True
ORvIk1xRWIQmKuLVe6GXNouvAXx2,28,66.0,300.0,0.3,medium_long,529.2999999523163,0.5292999999523162,491.5,0.4915,True,True
ORvIk1xRWIQmKuLVe6GXNouvAXx2,28,68.0,50.0,0.05,short,946.2999999523164,0.9462999999523164,1114.7000000476835,1.1147000000476834,True,True
ORvIk1xRWIQmKuLVe6GXNouvAXx2,28,69.0,150.0,0.15,medium_short,800.5,0.8005,818.2000000476837,0.8182000000476837,True,True
ORvIk1xRWIQmKuLVe6GXNouvAXx2,28,70.0,300.0,0.3,medium_long,865.6000000238419,0.8656000000238419,817.6000000238419,0.8176000000238418,True,True
ORvIk1xRWIQmKuLVe6GXNouvAXx2,28,71.0,300.0,0.3,medium_long,569.2000000476837,0.5692000000476837,526.6000000238419,0.5266000000238419,True,True
ORvIk1xRWIQmKuLVe6GXNouvAXx2,28,72.0,150.0,0.15,medium_short,614.1999999284744,0.6141999999284744,1124.7999999523165,1.1247999999523166,True,True
ORvIk1xRWIQmKuLVe6GXNouvAXx2,28,73.0,150.0,0.15,medium_short,1635.2000000476835,1.6352000000476834,1842.2999999523165,1.8422999999523164,True,True
ORvIk1xRWIQmKuLVe6GXNouvAXx2,28,74.0,300.0,0.3,medium_long,962.100000023842,0.962100000023842,1252.7000000476835,1.2527000000476836,True,True
ORvIk1xRWIQmKuLVe6GXNouvAXx2,28,75.0,150.0,0.15,medium_short,1032.600000023842,1.032600000023842,1270.7000000476835,1.2707000000476836,True,True
ORvIk1xRWIQmKuLVe6GXNouvAXx2,28,76.0,50.0,0.05,short,900.899999976158,0.900899999976158,1034.9000000953674,1.0349000000953674,True,True
ORvIk1xRWIQmKuLVe6GXNouvAXx2,28,77.0,1200.0,1.2,long,637.7000000476837,0.6377000000476837,433.3999999761581,0.4333999999761581,True,True
ORvIk1xRWIQmKuLVe6GXNouvAXx2,28,79.0,50.0,0.05,short,1363.0,1.363,1726.9000000953674,1.7269000000953674,True,True
ORvIk1xRWIQmKuLVe6GXNouvAXx2,28,80.0,300.0,0.3,medium_long,2810.899999976158,2.8108999999761584,2903.5,2.9035,True,True
ORvIk1xRWIQmKuLVe6GXNouvAXx2,28,81.0,150.0,0.15,medium_short,601.0,0.601,680.5,0.6805,True,True
ORvIk1xRWIQmKuLVe6GXNouvAXx2,28,82.0,1200.0,1.2,long,695.3999999761581,0.6953999999761581,531.1999999284744,0.5311999999284744,True,True
ORvIk1xRWIQmKuLVe6GXNouvAXx2,28,83.0,600.0,0.6,medium_long,872.2000000476837,0.8722000000476837,850.2000000476837,0.8502000000476837,True,True
ORvIk1xRWIQmKuLVe6GXNouvAXx2,28,84.0,1200.0,1.2,long,1522.399999976158,1.522399999976158,658.7999999523163,0.6587999999523163,True,True
ORvIk1xRWIQmKuLVe6GXNouvAXx2,28,85.0,1200.0,1.2,long,620.2999999523163,0.6202999999523163,325.5,0.3255,True,True
ORvIk1xRWIQmKuLVe6GXNouvAXx2,28,86.0,300.0,0.3,medium_long,925.8000000715256,0.9258000000715255,1455.8000000715256,1.4558000000715257,True,True
ORvIk1xRWIQmKuLVe6GXNouvAXx2,28,87.0,300.0,0.3,medium_long,907.5,0.9075,866.2000000476837,0.8662000000476837,True,True
ORvIk1xRWIQmKuLVe6GXNouvAXx2,28,88.0,50.0,0.05,short,564.0999999046326,0.5640999999046326,1136.899999976158,1.136899999976158,True,True
ORvIk1xRWIQmKuLVe6GXNouvAXx2,28,89.0,600.0,0.6,medium_long,757.6999999284744,0.7576999999284745,641.0,0.641,True,True
ORvIk1xRWIQmKuLVe6GXNouvAXx2,28,91.0,300.0,0.3,medium_long,737.8999999761581,0.7378999999761582,643.8999999761581,0.6438999999761581,True,True
ORvIk1xRWIQmKuLVe6GXNouvAXx2,28,92.0,600.0,0.6,medium_long,1471.1999999284744,1.4711999999284744,1301.5,1.3015,True,True
ORvIk1xRWIQmKuLVe6GXNouvAXx2,28,93.0,150.0,0.15,medium_short,756.1000000238419,0.7561000000238418,784.6000000238419,0.7846000000238419,True,True
ORvIk1xRWIQmKuLVe6GXNouvAXx2,28,94.0,50.0,0.05,short,1183.5,1.1835,1731.399999976158,1.731399999976158,True,True
ORvIk1xRWIQmKuLVe6GXNouvAXx2,28,95.0,1200.0,1.2,long,740.7999999523163,0.7407999999523163,940.399999976158,0.940399999976158,True,True
ORvIk1xRWIQmKuLVe6GXNouvAXx2,28,96.0,600.0,0.6,medium_long,2049.600000023842,2.0496000000238417,1700.0,1.7,True,True
ORvIk1xRWIQmKuLVe6GXNouvAXx2,28,97.0,150.0,0.15,medium_short,1045.3000000715256,1.0453000000715256,1289.2000000476835,1.2892000000476835,True,True
ORvIk1xRWIQmKuLVe6GXNouvAXx2,28,98.0,150.0,0.15,medium_short,932.600000023842,0.932600000023842,1138.399999976158,1.1383999999761578,True,True
ORvIk1xRWIQmKuLVe6GXNouvAXx2,28,99.0,300.0,0.3,medium_long,709.2999999523163,0.7092999999523163,620.6000000238419,0.6206000000238419,True,True
ORvIk1xRWIQmKuLVe6GXNouvAXx2,28,100.0,1200.0,1.2,long,531.0,0.531,522.5,0.5225,True,True
ORvIk1xRWIQmKuLVe6GXNouvAXx2,28,101.0,150.0,0.15,medium_short,743.6000000238419,0.7436000000238419,828.6999999284744,0.8286999999284744,True,True
ORvIk1xRWIQmKuLVe6GXNouvAXx2,28,102.0,1200.0,1.2,long,438.3999999761581,0.4383999999761581,285.0,0.285,True,True
ORvIk1xRWIQmKuLVe6GXNouvAXx2,28,103.0,150.0,0.15,medium_short,813.3999999761581,0.8133999999761582,891.0,0.891,True,True
ORvIk1xRWIQmKuLVe6GXNouvAXx2,28,104.0,50.0,0.05,short,624.9000000953674,0.6249000000953674,769.6000000238419,0.7696000000238419,True,True
ORvIk1xRWIQmKuLVe6GXNouvAXx2,28,106.0,300.0,0.3,medium_long,1400.0999999046326,1.4000999999046326,1636.5,1.6365,True,True
ORvIk1xRWIQmKuLVe6GXNouvAXx2,28,107.0,300.0,0.3,medium_long,1091.0,1.091,1309.5999999046326,1.3095999999046326,True,True
ORvIk1xRWIQmKuLVe6GXNouvAXx2,28,108.0,1200.0,1.2,long,667.9000000953674,0.6679000000953674,569.6000000238419,0.5696000000238418,True,True
ORvIk1xRWIQmKuLVe6GXNouvAXx2,28,109.0,600.0,0.6,medium_long,564.1999999284744,0.5641999999284745,426.10000002384186,0.42610000002384185,True,True
ORvIk1xRWIQmKuLVe6GXNouvAXx2,28,110.0,50.0,0.05,short,534.0999999046326,0.5340999999046325,771.2999999523163,0.7712999999523162,True,True
ORvIk1xRWIQmKuLVe6GXNouvAXx2,28,112.0,1200.0,1.2,long,767.2999999523163,0.7672999999523162,763.3000000715256,0.7633000000715255,True,True
ORvIk1xRWIQmKuLVe6GXNouvAXx2,28,113.0,50.0,0.05,short,1417.899999976158,1.417899999976158,1859.200000047684,1.859200000047684,True,True
ORvIk1xRWIQmKuLVe6GXNouvAXx2,28,114.0,50.0,0.05,short,1239.0,1.239,1787.2999999523165,1.7872999999523165,True,True
ORvIk1xRWIQmKuLVe6GXNouvAXx2,28,115.0,150.0,0.15,medium_short,617.6000000238419,0.6176000000238419,769.6999999284744,0.7696999999284744,True,True
ORvIk1xRWIQmKuLVe6GXNouvAXx2,28,116.0,50.0,0.05,short,877.2000000476837,0.8772000000476837,1057.7999999523165,1.0577999999523164,True,True
ORvIk1xRWIQmKuLVe6GXNouvAXx2,28,118.0,150.0,0.15,medium_short,702.0,0.702,846.9000000953674,0.8469000000953675,True,True
ORvIk1xRWIQmKuLVe6GXNouvAXx2,28,119.0,50.0,0.05,short,2249.5,2.2495,2818.599999904633,2.818599999904633,True,True
80UJMJbCOMgs6YVpsMgXfYTzw6o2,6,0.0,150.0,0.15,medium_short,1554.10000000149,1.55410000000149,1677.89999999851,1.67789999999851,True,True
80UJMJbCOMgs6YVpsMgXfYTzw6o2,6,1.0,600.0,0.6,medium_long,1307.300000000745,1.307300000000745,1056.0,1.056,True,True
80UJMJbCOMgs6YVpsMgXfYTzw6o2,6,2.0,300.0,0.3,medium_long,1237.4000000003723,1.2374000000003722,1177.800000000745,1.1778000000007451,True,True
80UJMJbCOMgs6YVpsMgXfYTzw6o2,6,3.0,600.0,0.6,medium_long,1293.5999999996277,1.2935999999996277,1141.4000000003723,1.1414000000003723,True,True
80UJMJbCOMgs6YVpsMgXfYTzw6o2,6,4.0,150.0,0.15,medium_short,1229.5,1.2295,1331.2999999988824,1.3312999999988824,True,True
80UJMJbCOMgs6YVpsMgXfYTzw6o2,6,5.0,150.0,0.15,medium_short,866.7999999988824,0.8667999999988825,917.0,0.917,True,True
80UJMJbCOMgs6YVpsMgXfYTzw6o2,6,6.0,150.0,0.15,medium_short,1178.2000000011176,1.1782000000011177,1200.0999999996277,1.2000999999996278,True,True
80UJMJbCOMgs6YVpsMgXfYTzw6o2,6,8.0,300.0,0.3,medium_long,1404.4000000003723,1.4044000000003722,1252.699999999255,1.252699999999255,True,True
80UJMJbCOMgs6YVpsMgXfYTzw6o2,6,9.0,50.0,0.05,short,1663.5999999996277,1.6635999999996276,1752.10000000149,1.75210000000149,True,True
80UJMJbCOMgs6YVpsMgXfYTzw6o2,6,10.0,50.0,0.05,short,1243.4000000003723,1.2434000000003722,1367.4000000003723,1.3674000000003723,True,True
80UJMJbCOMgs6YVpsMgXfYTzw6o2,6,11.0,150.0,0.15,medium_short,908.3000000007452,0.9083000000007452,988.8000000007452,0.9888000000007452,True,True
80UJMJbCOMgs6YVpsMgXfYTzw6o2,6,12.0,600.0,0.6,medium_long,815.5999999996275,0.8155999999996275,633.0999999996275,0.6330999999996275,True,True
80UJMJbCOMgs6YVpsMgXfYTzw6o2,6,13.0,600.0,0.6,medium_long,788.5999999996275,0.7885999999996275,779.7999999988824,0.7797999999988824,True,True
80UJMJbCOMgs6YVpsMgXfYTzw6o2,6,14.0,50.0,0.05,short,1274.7000000011176,1.2747000000011175,1602.800000000745,1.602800000000745,True,True
80UJMJbCOMgs6YVpsMgXfYTzw6o2,6,15.0,50.0,0.05,short,866.8000000007451,0.8668000000007451,1028.7000000011176,1.0287000000011175,True,True
80UJMJbCOMgs6YVpsMgXfYTzw6o2,6,16.0,600.0,0.6,medium_long,751.2000000011176,0.7512000000011176,653.4000000003725,0.6534000000003726,True,True
80UJMJbCOMgs6YVpsMgXfYTzw6o2,6,17.0,50.0,0.05,short,812.5999999996275,0.8125999999996275,1020.1999999992548,1.0201999999992548,True,True
80UJMJbCOMgs6YVpsMgXfYTzw6o2,6,18.0,1200.0,1.2,long,757.0999999996275,0.7570999999996275,686.8000000007451,0.686800000000745,True,True
80UJMJbCOMgs6YVpsMgXfYTzw6o2,6,19.0,600.0,0.6,medium_long,929.8000000007452,0.9298000000007451,601.0999999996275,0.6010999999996275,True,True
80UJMJbCOMgs6YVpsMgXfYTzw6o2,6,20.0,300.0,0.3,medium_long,973.0999999996276,0.9730999999996276,983.4000000003724,0.9834000000003724,True,True
80UJMJbCOMgs6YVpsMgXfYTzw6o2,6,21.0,50.0,0.05,short,1291.7999999988824,1.2917999999988825,1445.199999999255,1.4451999999992549,True,True
80UJMJbCOMgs6YVpsMgXfYTzw6o2,6,22.0,150.0,0.15,medium_short,912.5,0.9125,926.0999999996276,0.9260999999996276,True,True
80UJMJbCOMgs6YVpsMgXfYTzw6o2,6,23.0,1200.0,1.2,long,681.1000000014901,0.6811000000014901,649.5999999996275,0.6495999999996275,True,True
80UJMJbCOMgs6YVpsMgXfYTzw6o2,6,24.0,600.0,0.6,medium_long,1227.0,1.227,878.0999999996275,0.8780999999996275,True,True
80UJMJbCOMgs6YVpsMgXfYTzw6o2,6,25.0,1200.0,1.2,long,694.2000000011176,0.6942000000011176,596.3000000007451,0.596300000000745,True,True
80UJMJbCOMgs6YVpsMgXfYTzw6o2,6,26.0,600.0,0.6,medium_long,685.0,0.685,729.7999999988824,0.7297999999988825,True,True
80UJMJbCOMgs6YVpsMgXfYTzw6o2,6,27.0,1200.0,1.2,long,833.3000000007451,0.8333000000007451,516.7999999988824,0.5167999999988824,True,True
80UJMJbCOMgs6YVpsMgXfYTzw6o2,6,28.0,300.0,0.3,medium_long,523.9000000003725,0.5239000000003725,671.2000000011176,0.6712000000011176,True,True
80UJMJbCOMgs6YVpsMgXfYTzw6o2,6,29.0,300.0,0.3,medium_long,694.5,0.6945,753.6999999992549,0.753699999999255,True,True
80UJMJbCOMgs6YVpsMgXfYTzw6o2,6,30.0,300.0,0.3,medium_long,1137.5999999996277,1.1375999999996278,1085.2000000011176,1.0852000000011175,True,True
80UJMJbCOMgs6YVpsMgXfYTzw6o2,6,31.0,600.0,0.6,medium_long,514.3000000007451,0.514300000000745,556.9000000003725,0.5569000000003725,True,True
80UJMJbCOMgs6YVpsMgXfYTzw6o2,6,32.0,1200.0,1.2,long,483.80000000074506,0.4838000000007451,434.4000000003725,0.4344000000003725,True,True
80UJMJbCOMgs6YVpsMgXfYTzw6o2,6,33.0,300.0,0.3,medium_long,665.9000000003725,0.6659000000003725,684.4000000003725,0.6844000000003725,True,True
80UJMJbCOMgs6YVpsMgXfYTzw6o2,6,34.0,600.0,0.6,medium_long,445.0,0.445,515.0,0.515,True,True
80UJMJbCOMgs6YVpsMgXfYTzw6o2,6,35.0,300.0,0.3,medium_long,486.9000000003725,0.4869000000003725,691.5,0.6915,True,True
80UJMJbCOMgs6YVpsMgXfYTzw6o2,6,36.0,600.0,0.6,medium_long,701.5999999996275,0.7015999999996275,540.1999999992549,0.5401999999992549,True,True
80UJMJbCOMgs6YVpsMgXfYTzw6o2,6,37.0,50.0,0.05,short,665.5,0.6655,859.5999999996275,0.8595999999996274,True,True
80UJMJbCOMgs6YVpsMgXfYTzw6o2,6,38.0,1200.0,1.2,long,815.8999999985099,0.8158999999985099,366.0999999996274,0.3660999999996274,True,True
80UJMJbCOMgs6YVpsMgXfYTzw6o2,6,39.0,150.0,0.15,medium_short,878.9000000003725,0.8789000000003725,1059.0,1.059,True,True
80UJMJbCOMgs6YVpsMgXfYTzw6o2,6,40.0,300.0,0.3,medium_long,833.0,0.833,985.4000000003724,0.9854000000003724,True,True
80UJMJbCOMgs6YVpsMgXfYTzw6o2,6,41.0,600.0,0.6,medium_long,792.6999999992549,0.7926999999992549,656.0,0.656,True,True
80UJMJbCOMgs6YVpsMgXfYTzw6o2,6,42.0,600.0,0.6,medium_long,784.5,0.7845,648.0,0.648,True,True
80UJMJbCOMgs6YVpsMgXfYTzw6o2,6,43.0,50.0,0.05,short,710.2999999988824,0.7102999999988824,1214.2999999988824,1.2142999999988824,True,True
80UJMJbCOMgs6YVpsMgXfYTzw6o2,6,44.0,50.0,0.05,short,947.0,0.947,1135.2000000011176,1.1352000000011175,True,True
80UJMJbCOMgs6YVpsMgXfYTzw6o2,6,45.0,300.0,0.3,medium_long,738.6999999992549,0.738699999999255,635.2999999988824,0.6352999999988824,True,True
80UJMJbCOMgs6YVpsMgXfYTzw6o2,6,46.0,150.0,0.15,medium_short,535.0,0.535,1044.0999999996277,1.0440999999996277,True,True
80UJMJbCOMgs6YVpsMgXfYTzw6o2,6,47.0,300.0,0.3,medium_long,622.9000000003725,0.6229000000003725,993.39999999851,0.99339999999851,True,True
80UJMJbCOMgs6YVpsMgXfYTzw6o2,6,48.0,150.0,0.15,medium_short,890.7000000011176,0.8907000000011176,922.5,0.9225,True,True
80UJMJbCOMgs6YVpsMgXfYTzw6o2,6,49.0,300.0,0.3,medium_long,697.3000000007451,0.6973000000007451,818.8000000007451,0.818800000000745,True,True
80UJMJbCOMgs6YVpsMgXfYTzw6o2,6,50.0,1200.0,1.2,long,598.9000000003725,0.5989000000003726,557.4000000003725,0.5574000000003725,True,True
80UJMJbCOMgs6YVpsMgXfYTzw6o2,6,52.0,150.0,0.15,medium_short,898.7999999988824,0.8987999999988824,960.2999999988824,0.9602999999988824,True,True
80UJMJbCOMgs6YVpsMgXfYTzw6o2,6,53.0,1200.0,1.2,long,815.0999999996275,0.8150999999996275,463.7000000011176,0.4637000000011176,True,True
80UJMJbCOMgs6YVpsMgXfYTzw6o2,6,54.0,1200.0,1.2,long,559.0,0.559,471.1999999992549,0.4711999999992549,True,True
80UJMJbCOMgs6YVpsMgXfYTzw6o2,6,55.0,150.0,0.15,medium_short,698.0999999996275,0.6980999999996275,830.7999999988824,0.8307999999988824,True,True
80UJMJbCOMgs6YVpsMgXfYTzw6o2,6,56.0,150.0,0.15,medium_short,822.3999999985099,0.8223999999985099,843.6999999992549,0.8436999999992549,True,True
80UJMJbCOMgs6YVpsMgXfYTzw6o2,6,57.0,300.0,0.3,medium_long,653.1999999992549,0.6531999999992549,622.1999999992549,0.6221999999992549,True,True
80UJMJbCOMgs6YVpsMgXfYTzw6o2,6,58.0,50.0,0.05,short,649.2999999988824,0.6492999999988824,750.9000000003725,0.7509000000003725,True,True
80UJMJbCOMgs6YVpsMgXfYTzw6o2,6,59.0,150.0,0.15,medium_short,492.6999999992549,0.4926999999992549,679.7000000011176,0.6797000000011176,True,True
80UJMJbCOMgs6YVpsMgXfYTzw6o2,6,60.0,600.0,0.6,medium_long,762.8999999985099,0.7628999999985099,633.5,0.6335,True,True
80UJMJbCOMgs6YVpsMgXfYTzw6o2,6,61.0,1200.0,1.2,long,782.3000000007451,0.7823000000007451,475.0999999996274,0.47509999999962743,True,True
80UJMJbCOMgs6YVpsMgXfYTzw6o2,6,62.0,1200.0,1.2,long,552.6000000014901,0.5526000000014901,434.5,0.4345,True,True
80UJMJbCOMgs6YVpsMgXfYTzw6o2,6,63.0,600.0,0.6,medium_long,566.7000000011176,0.5667000000011175,559.4000000003725,0.5594000000003725,True,True
80UJMJbCOMgs6YVpsMgXfYTzw6o2,6,65.0,150.0,0.15,medium_short,1204.5,1.2045,1249.199999999255,1.249199999999255,True,True
80UJMJbCOMgs6YVpsMgXfYTzw6o2,6,66.0,150.0,0.15,medium_short,1144.5999999996277,1.1445999999996277,1121.0999999996277,1.1210999999996276,True,True
80UJMJbCOMgs6YVpsMgXfYTzw6o2,6,67.0,150.0,0.15,medium_short,860.5,0.8605,799.7000000011176,0.7997000000011176,True,True
80UJMJbCOMgs6YVpsMgXfYTzw6o2,6,68.0,300.0,0.3,medium_long,861.0999999996275,0.8610999999996275,689.1000000014901,0.6891000000014901,True,True
80UJMJbCOMgs6YVpsMgXfYTzw6o2,6,69.0,1200.0,1.2,long,661.4000000003725,0.6614000000003726,487.5,0.4875,True,True
80UJMJbCOMgs6YVpsMgXfYTzw6o2,6,70.0,600.0,0.6,medium_long,559.5999999996275,0.5595999999996275,536.5,0.5365,True,True
80UJMJbCOMgs6YVpsMgXfYTzw6o2,6,71.0,50.0,0.05,short,1152.0999999996277,1.1520999999996278,1220.300000000745,1.2203000000007451,True,True
80UJMJbCOMgs6YVpsMgXfYTzw6o2,6,72.0,300.0,0.3,medium_long,735.5,0.7355,784.0,0.784,True,True
80UJMJbCOMgs6YVpsMgXfYTzw6o2,6,73.0,50.0,0.05,short,547.6000000014901,0.5476000000014901,636.4000000003725,0.6364000000003726,True,True
80UJMJbCOMgs6YVpsMgXfYTzw6o2,6,74.0,50.0,0.05,short,1084.5,1.0845,1147.5,1.1475,True,True
80UJMJbCOMgs6YVpsMgXfYTzw6o2,6,75.0,50.0,0.05,short,894.6000000014901,0.8946000000014901,982.7000000011176,0.9827000000011176,True,True
80UJMJbCOMgs6YVpsMgXfYTzw6o2,6,76.0,50.0,0.05,short,838.3999999985099,0.8383999999985099,904.6999999992548,0.9046999999992549,True,True
80UJMJbCOMgs6YVpsMgXfYTzw6o2,6,77.0,300.0,0.3,medium_long,871.2000000011176,0.8712000000011176,850.6000000014901,0.8506000000014902,True,True
80UJMJbCOMgs6YVpsMgXfYTzw6o2,6,78.0,50.0,0.05,short,849.3999999985099,0.8493999999985099,934.0,0.934,True,True
80UJMJbCOMgs6YVpsMgXfYTzw6o2,6,80.0,1200.0,1.2,long,1308.800000000745,1.3088000000007451,920.0,0.92,True,True
80UJMJbCOMgs6YVpsMgXfYTzw6o2,6,81.0,1200.0,1.2,long,629.3999999985099,0.6293999999985099,530.7999999988824,0.5307999999988824,True,True
80UJMJbCOMgs6YVpsMgXfYTzw6o2,6,82.0,600.0,0.6,medium_long,715.8000000007451,0.7158000000007451,471.80000000074506,0.47180000000074507,True,True
80UJMJbCOMgs6YVpsMgXfYTzw6o2,6,83.0,600.0,0.6,medium_long,450.30000000074506,0.45030000000074505,477.4000000003725,0.47740000000037247,True,True
80UJMJbCOMgs6YVpsMgXfYTzw6o2,6,84.0,150.0,0.15,medium_short,687.0,0.687,751.6999999992549,0.751699999999255,True,True
80UJMJbCOMgs6YVpsMgXfYTzw6o2,6,85.0,1200.0,1.2,long,588.5999999996275,0.5885999999996274,493.0,0.493,True,True
80UJMJbCOMgs6YVpsMgXfYTzw6o2,6,86.0,150.0,0.15,medium_short,765.1999999992549,0.7651999999992549,842.0,0.842,True,True
80UJMJbCOMgs6YVpsMgXfYTzw6o2,6,87.0,600.0,0.6,medium_long,697.2000000011176,0.6972000000011176,526.7999999988824,0.5267999999988824,True,True
80UJMJbCOMgs6YVpsMgXfYTzw6o2,6,88.0,150.0,0.15,medium_short,563.5999999996275,0.5635999999996275,735.2000000011176,0.7352000000011176,True,True
80UJMJbCOMgs6YVpsMgXfYTzw6o2,6,89.0,150.0,0.15,medium_short,746.9000000003725,0.7469000000003725,999.7000000011176,0.9997000000011176,True,True
80UJMJbCOMgs6YVpsMgXfYTzw6o2,6,90.0,600.0,0.6,medium_long,1111.2000000011176,1.1112000000011175,874.5,0.8745,True,True
80UJMJbCOMgs6YVpsMgXfYTzw6o2,6,91.0,300.0,0.3,medium_long,701.0,0.701,631.3999999985099,0.6313999999985099,True,True
80UJMJbCOMgs6YVpsMgXfYTzw6o2,6,92.0,300.0,0.3,medium_long,597.0999999996275,0.5970999999996275,533.5999999996275,0.5335999999996275,True,True
80UJMJbCOMgs6YVpsMgXfYTzw6o2,6,93.0,300.0,0.3,medium_long,660.0,0.66,611.5999999996275,0.6115999999996274,True,True
80UJMJbCOMgs6YVpsMgXfYTzw6o2,6,94.0,600.0,0.6,medium_long,597.4000000003725,0.5974000000003725,493.0,0.493,True,True
80UJMJbCOMgs6YVpsMgXfYTzw6o2,6,95.0,1200.0,1.2,long,596.9000000003725,0.5969000000003726,350.7999999988824,0.3507999999988824,True,True
80UJMJbCOMgs6YVpsMgXfYTzw6o2,6,96.0,150.0,0.15,medium_short,367.5,0.3675,561.6000000014901,0.5616000000014901,True,True
80UJMJbCOMgs6YVpsMgXfYTzw6o2,6,97.0,1200.0,1.2,long,585.5,0.5855,486.7000000011176,0.48670000000111757,True,True
80UJMJbCOMgs6YVpsMgXfYTzw6o2,6,98.0,150.0,0.15,medium_short,695.0,0.695,862.3999999985099,0.8623999999985099,True,True
80UJMJbCOMgs6YVpsMgXfYTzw6o2,6,99.0,600.0,0.6,medium_long,631.8000000007451,0.6318000000007451,505.0,0.505,True,True
80UJMJbCOMgs6YVpsMgXfYTzw6o2,6,100.0,150.0,0.15,medium_short,632.0999999996275,0.6320999999996275,729.9000000003725,0.7299000000003726,True,True
80UJMJbCOMgs6YVpsMgXfYTzw6o2,6,101.0,50.0,0.05,short,665.2000000011176,0.6652000000011176,843.7999999988824,0.8437999999988824,True,True
80UJMJbCOMgs6YVpsMgXfYTzw6o2,6,102.0,300.0,0.3,medium_long,602.7999999988824,0.6027999999988825,544.6999999992549,0.5446999999992549,True,True
80UJMJbCOMgs6YVpsMgXfYTzw6o2,6,103.0,1200.0,1.2,long,581.5999999996275,0.5815999999996275,454.4000000003725,0.45440000000037245,True,True
80UJMJbCOMgs6YVpsMgXfYTzw6o2,6,105.0,1200.0,1.2,long,1394.5999999996277,1.3945999999996277,533.5999999996275,0.5335999999996275,True,True
80UJMJbCOMgs6YVpsMgXfYTzw6o2,6,106.0,300.0,0.3,medium_long,539.5,0.5395,777.6000000014901,0.7776000000014901,True,True
80UJMJbCOMgs6YVpsMgXfYTzw6o2,6,107.0,300.0,0.3,medium_long,723.8000000007451,0.7238000000007451,767.2000000011176,0.7672000000011175,True,True
80UJMJbCOMgs6YVpsMgXfYTzw6o2,6,108.0,300.0,0.3,medium_long,938.2999999988824,0.9382999999988824,837.5999999996275,0.8375999999996274,True,True
80UJMJbCOMgs6YVpsMgXfYTzw6o2,6,109.0,50.0,0.05,short,1056.2999999988824,1.0562999999988825,1240.5999999996277,1.2405999999996278,True,True
80UJMJbCOMgs6YVpsMgXfYTzw6o2,6,110.0,50.0,0.05,short,1061.2000000011176,1.0612000000011177,1236.5,1.2365,True,True
80UJMJbCOMgs6YVpsMgXfYTzw6o2,6,111.0,50.0,0.05,short,750.6999999992549,0.750699999999255,919.3000000007452,0.9193000000007452,True,True
80UJMJbCOMgs6YVpsMgXfYTzw6o2,6,112.0,1200.0,1.2,long,806.0999999996275,0.8060999999996274,711.9000000003725,0.7119000000003726,True,True
80UJMJbCOMgs6YVpsMgXfYTzw6o2,6,113.0,1200.0,1.2,long,574.8000000007451,0.574800000000745,450.1999999992549,0.45019999999925486,True,True
80UJMJbCOMgs6YVpsMgXfYTzw6o2,6,114.0,50.0,0.05,short,940.0999999996276,0.9400999999996276,1089.5,1.0895,True,True
80UJMJbCOMgs6YVpsMgXfYTzw6o2,6,115.0,50.0,0.05,short,691.7999999988824,0.6917999999988824,889.6000000014901,0.8896000000014901,True,True
80UJMJbCOMgs6YVpsMgXfYTzw6o2,6,116.0,1200.0,1.2,long,639.2000000011176,0.6392000000011175,419.7000000011176,0.41970000000111757,True,True
80UJMJbCOMgs6YVpsMgXfYTzw6o2,6,117.0,50.0,0.05,short,562.1999999992549,0.562199999999255,752.4000000003725,0.7524000000003725,True,True
80UJMJbCOMgs6YVpsMgXfYTzw6o2,6,118.0,300.0,0.3,medium_long,1360.199999999255,1.360199999999255,1358.4000000003723,1.3584000000003722,True,True
80UJMJbCOMgs6YVpsMgXfYTzw6o2,6,119.0,150.0,0.15,medium_short,897.4000000003725,0.8974000000003726,922.0999999996276,0.9220999999996276,True,True
rUuJv5gl7dWVo7UPQWMx4bohxhK2,63,0.0,600.0,0.6,medium_long,1697.8000000000466,1.6978000000000466,2050.699999999953,2.050699999999953,True,True
rUuJv5gl7dWVo7UPQWMx4bohxhK2,63,3.0,50.0,0.05,short,2459.199999999953,2.459199999999953,1302.8000000000466,1.3028000000000466,True,True
rUuJv5gl7dWVo7UPQWMx4bohxhK2,63,5.0,300.0,0.3,medium_long,2817.100000000093,2.817100000000093,810.8000000000466,0.8108000000000466,True,True
rUuJv5gl7dWVo7UPQWMx4bohxhK2,63,6.0,1200.0,1.2,long,2146.0,2.146,1390.2999999998135,1.3902999999998136,True,True
rUuJv5gl7dWVo7UPQWMx4bohxhK2,63,14.0,150.0,0.15,medium_short,1657.6000000000931,1.6576000000000932,1613.7000000001865,1.6137000000001864,True,True
rUuJv5gl7dWVo7UPQWMx4bohxhK2,63,15.0,50.0,0.05,short,1461.5,1.4615,1844.6999999999532,1.8446999999999532,True,True
rUuJv5gl7dWVo7UPQWMx4bohxhK2,63,18.0,1200.0,1.2,long,2025.3000000000463,2.0253000000000463,1150.3000000000466,1.1503000000000465,True,True
rUuJv5gl7dWVo7UPQWMx4bohxhK2,63,20.0,50.0,0.05,short,1581.3999999999069,1.5813999999999069,2303.0,2.303,True,True
rUuJv5gl7dWVo7UPQWMx4bohxhK2,63,22.0,600.0,0.6,medium_long,1893.5,1.8935,1938.3000000000463,1.9383000000000463,True,True
rUuJv5gl7dWVo7UPQWMx4bohxhK2,63,23.0,600.0,0.6,medium_long,1559.9000000001397,1.5599000000001397,1504.5999999998603,1.5045999999998603,True,True
rUuJv5gl7dWVo7UPQWMx4bohxhK2,63,24.0,300.0,0.3,medium_long,2405.90000000014,2.4059000000001403,2699.40000000014,2.69940000000014,True,True
rUuJv5gl7dWVo7UPQWMx4bohxhK2,63,25.0,1200.0,1.2,long,1285.3999999999069,1.2853999999999068,931.0999999998604,0.9310999999998604,True,True
rUuJv5gl7dWVo7UPQWMx4bohxhK2,63,26.0,1200.0,1.2,long,1425.8000000000466,1.4258000000000466,1282.5,1.2825,True,True
rUuJv5gl7dWVo7UPQWMx4bohxhK2,63,28.0,50.0,0.05,short,1973.100000000093,1.973100000000093,2309.899999999907,2.309899999999907,True,True
rUuJv5gl7dWVo7UPQWMx4bohxhK2,63,29.0,600.0,0.6,medium_long,2579.0,2.579,2587.100000000093,2.587100000000093,True,True
rUuJv5gl7dWVo7UPQWMx4bohxhK2,63,30.0,150.0,0.15,medium_short,1348.1000000000931,1.3481000000000931,2222.5,2.2225,True,True
rUuJv5gl7dWVo7UPQWMx4bohxhK2,63,31.0,150.0,0.15,medium_short,1580.3000000000466,1.5803000000000467,1950.3999999999069,1.9503999999999069,True,True
rUuJv5gl7dWVo7UPQWMx4bohxhK2,63,32.0,300.0,0.3,medium_long,2468.8000000000466,2.4688000000000465,2722.399999999907,2.7223999999999067,True,True
rUuJv5gl7dWVo7UPQWMx4bohxhK2,63,34.0,50.0,0.05,short,1236.1999999999534,1.2361999999999533,2091.5,2.0915,True,True
rUuJv5gl7dWVo7UPQWMx4bohxhK2,63,35.0,1200.0,1.2,long,872.5,0.8725,759.8000000000466,0.7598000000000465,True,True
rUuJv5gl7dWVo7UPQWMx4bohxhK2,63,36.0,300.0,0.3,medium_long,2046.0,2.046,2416.0999999998603,2.4160999999998602,True,True
rUuJv5gl7dWVo7UPQWMx4bohxhK2,63,37.0,150.0,0.15,medium_short,1775.3000000000466,1.7753000000000465,2249.0,2.249,True,True
rUuJv5gl7dWVo7UPQWMx4bohxhK2,63,38.0,600.0,0.6,medium_long,1996.1999999999532,1.9961999999999531,1833.1999999999532,1.8331999999999533,True,True
rUuJv5gl7dWVo7UPQWMx4bohxhK2,63,39.0,1200.0,1.2,long,887.3000000000466,0.8873000000000466,926.5,0.9265,True,True
rUuJv5gl7dWVo7UPQWMx4bohxhK2,63,40.0,50.0,0.05,short,2249.8000000000466,2.2498000000000467,2891.3000000000466,2.8913000000000464,True,True
rUuJv5gl7dWVo7UPQWMx4bohxhK2,63,41.0,300.0,0.3,medium_long,2141.2000000001863,2.141200000000186,2353.699999999953,2.353699999999953,True,True
rUuJv5gl7dWVo7UPQWMx4bohxhK2,63,42.0,300.0,0.3,medium_long,1061.0,1.061,1228.5,1.2285,True,True
rUuJv5gl7dWVo7UPQWMx4bohxhK2,63,43.0,150.0,0.15,medium_short,1465.8000000000466,1.4658000000000466,1961.8000000000463,1.9618000000000464,True,True
rUuJv5gl7dWVo7UPQWMx4bohxhK2,63,44.0,50.0,0.05,short,1387.5,1.3875,1935.3999999999069,1.935399999999907,True,True
rUuJv5gl7dWVo7UPQWMx4bohxhK2,63,45.0,1200.0,1.2,long,2271.5,2.2715,1780.3000000000466,1.7803000000000466,True,True
rUuJv5gl7dWVo7UPQWMx4bohxhK2,63,46.0,150.0,0.15,medium_short,1873.0,1.873,2607.5,2.6075,True,True
rUuJv5gl7dWVo7UPQWMx4bohxhK2,63,48.0,300.0,0.3,medium_long,2670.8000000000466,2.6708000000000465,2772.699999999953,2.772699999999953,True,True
rUuJv5gl7dWVo7UPQWMx4bohxhK2,63,49.0,50.0,0.05,short,1441.1000000000931,1.441100000000093,740.5,0.7405,True,True
rUuJv5gl7dWVo7UPQWMx4bohxhK2,63,51.0,50.0,0.05,short,989.8000000000466,0.9898000000000465,1473.5999999998603,1.4735999999998604,True,True
rUuJv5gl7dWVo7UPQWMx4bohxhK2,63,52.0,150.0,0.15,medium_short,1573.3999999999069,1.5733999999999069,1875.0999999998603,1.8750999999998603,True,True
rUuJv5gl7dWVo7UPQWMx4bohxhK2,63,53.0,600.0,0.6,medium_long,1316.3000000000466,1.3163000000000467,1867.2000000001865,1.8672000000001865,True,True
rUuJv5gl7dWVo7UPQWMx4bohxhK2,63,54.0,300.0,0.3,medium_long,1016.8000000000466,1.0168000000000466,1280.2999999998135,1.2802999999998135,True,True
rUuJv5gl7dWVo7UPQWMx4bohxhK2,63,55.0,150.0,0.15,medium_short,893.0999999998603,0.8930999999998603,1099.6000000000931,1.0996000000000932,True,True
rUuJv5gl7dWVo7UPQWMx4bohxhK2,63,56.0,50.0,0.05,short,1546.0999999998603,1.5460999999998604,2160.90000000014,2.16090000000014,True,True
rUuJv5gl7dWVo7UPQWMx4bohxhK2,63,57.0,50.0,0.05,short,1138.8000000000466,1.1388000000000467,2144.3000000000466,2.1443000000000465,True,True
rUuJv5gl7dWVo7UPQWMx4bohxhK2,63,58.0,150.0,0.15,medium_short,1946.0,1.946,2759.90000000014,2.7599000000001404,True,True
rUuJv5gl7dWVo7UPQWMx4bohxhK2,63,60.0,1200.0,1.2,long,1496.7000000001865,1.4967000000001864,869.6999999999534,0.8696999999999534,True,True
rUuJv5gl7dWVo7UPQWMx4bohxhK2,63,61.0,150.0,0.15,medium_short,752.0,0.752,1631.8000000000466,1.6318000000000465,True,True
rUuJv5gl7dWVo7UPQWMx4bohxhK2,63,62.0,600.0,0.6,medium_long,1483.1000000000931,1.4831000000000931,1881.7999999998135,1.8817999999998134,True,True
rUuJv5gl7dWVo7UPQWMx4bohxhK2,63,63.0,1200.0,1.2,long,1231.3000000000466,1.2313000000000465,734.1999999999534,0.7341999999999534,True,True
rUuJv5gl7dWVo7UPQWMx4bohxhK2,63,64.0,50.0,0.05,short,1171.8999999999069,1.171899999999907,1625.0,1.625,True,True
rUuJv5gl7dWVo7UPQWMx4bohxhK2,63,65.0,150.0,0.15,medium_short,1170.4000000001397,1.1704000000001398,1720.6999999999534,1.7206999999999535,True,True
rUuJv5gl7dWVo7UPQWMx4bohxhK2,63,66.0,150.0,0.15,medium_short,1323.5,1.3235,1946.2999999998135,1.9462999999998134,True,True
rUuJv5gl7dWVo7UPQWMx4bohxhK2,63,67.0,150.0,0.15,medium_short,1435.8999999999069,1.435899999999907,1753.0999999998603,1.7530999999998602,True,True
rUuJv5gl7dWVo7UPQWMx4bohxhK2,63,68.0,50.0,0.05,short,1516.8000000000466,1.5168000000000466,2055.699999999953,2.055699999999953,True,True
rUuJv5gl7dWVo7UPQWMx4bohxhK2,63,69.0,150.0,0.15,medium_short,1604.0,1.604,2805.899999999907,2.805899999999907,True,True
rUuJv5gl7dWVo7UPQWMx4bohxhK2,63,70.0,50.0,0.05,short,979.1999999999534,0.9791999999999534,1443.6999999999534,1.4436999999999534,True,True
rUuJv5gl7dWVo7UPQWMx4bohxhK2,63,71.0,300.0,0.3,medium_long,836.8999999999069,0.8368999999999068,944.1000000000932,0.9441000000000932,True,True
rUuJv5gl7dWVo7UPQWMx4bohxhK2,63,72.0,1200.0,1.2,long,1700.1000000000931,1.7001000000000932,1698.3000000000466,1.6983000000000466,True,True
rUuJv5gl7dWVo7UPQWMx4bohxhK2,63,73.0,150.0,0.15,medium_short,1431.5,1.4315,1973.8000000000463,1.9738000000000464,True,True
rUuJv5gl7dWVo7UPQWMx4bohxhK2,63,74.0,600.0,0.6,medium_long,2190.8000000000466,2.1908000000000465,2004.3000000000463,2.0043000000000464,True,True
rUuJv5gl7dWVo7UPQWMx4bohxhK2,63,75.0,300.0,0.3,medium_long,958.9000000001396,0.9589000000001395,1042.3000000000466,1.0423000000000466,True,True
rUuJv5gl7dWVo7UPQWMx4bohxhK2,63,76.0,150.0,0.15,medium_short,717.3000000000466,0.7173000000000466,945.7000000001864,0.9457000000001864,True,True
rUuJv5gl7dWVo7UPQWMx4bohxhK2,63,77.0,1200.0,1.2,long,1366.1999999999534,1.3661999999999535,881.1999999999534,0.8811999999999535,True,True
rUuJv5gl7dWVo7UPQWMx4bohxhK2,63,78.0,300.0,0.3,medium_long,861.1000000000931,0.8611000000000931,1109.5,1.1095,True,True
rUuJv5gl7dWVo7UPQWMx4bohxhK2,63,79.0,1200.0,1.2,long,729.0,0.729,542.7000000001863,0.5427000000001863,True,True
rUuJv5gl7dWVo7UPQWMx4bohxhK2,63,80.0,600.0,0.6,medium_long,946.0999999998604,0.9460999999998604,1016.1999999999534,1.0161999999999534,True,True
rUuJv5gl7dWVo7UPQWMx4bohxhK2,63,81.0,300.0,0.3,medium_long,1489.8000000000466,1.4898000000000466,1767.6999999999534,1.7676999999999534,True,True
rUuJv5gl7dWVo7UPQWMx4bohxhK2,63,82.0,50.0,0.05,short,816.8000000000466,0.8168000000000466,1674.0999999998603,1.6740999999998603,True,True
rUuJv5gl7dWVo7UPQWMx4bohxhK2,63,83.0,600.0,0.6,medium_long,964.1999999999534,0.9641999999999534,906.3000000000466,0.9063000000000465,True,True
rUuJv5gl7dWVo7UPQWMx4bohxhK2,63,84.0,300.0,0.3,medium_long,855.4000000001397,0.8554000000001397,1005.7000000001864,1.0057000000001863,True,True
rUuJv5gl7dWVo7UPQWMx4bohxhK2,63,86.0,150.0,0.15,medium_short,1790.0999999998603,1.7900999999998604,2602.8000000000466,2.6028000000000464,True,True
rUuJv5gl7dWVo7UPQWMx4bohxhK2,63,87.0,150.0,0.15,medium_short,920.8999999999068,0.9208999999999068,1297.6999999999534,1.2976999999999534,True,True
rUuJv5gl7dWVo7UPQWMx4bohxhK2,63,88.0,1200.0,1.2,long,879.4000000001397,0.8794000000001397,824.3999999999069,0.8243999999999069,True,True
rUuJv5gl7dWVo7UPQWMx4bohxhK2,63,90.0,300.0,0.3,medium_long,2991.90000000014,2.99190000000014,1064.2000000001865,1.0642000000001866,True,True
rUuJv5gl7dWVo7UPQWMx4bohxhK2,63,91.0,150.0,0.15,medium_short,1716.3000000000466,1.7163000000000466,2306.5,2.3065,True,True
rUuJv5gl7dWVo7UPQWMx4bohxhK2,63,92.0,50.0,0.05,short,800.8000000000466,0.8008000000000466,1782.0,1.782,True,True
rUuJv5gl7dWVo7UPQWMx4bohxhK2,63,93.0,600.0,0.6,medium_long,1631.2000000001865,1.6312000000001865,1799.3000000000466,1.7993000000000465,True,True
rUuJv5gl7dWVo7UPQWMx4bohxhK2,63,94.0,50.0,0.05,short,2086.8000000000466,2.0868000000000464,2885.90000000014,2.8859000000001402,True,True
rUuJv5gl7dWVo7UPQWMx4bohxhK2,63,95.0,300.0,0.3,medium_long,1319.8000000000466,1.3198000000000465,1440.6000000000931,1.4406000000000931,True,True
rUuJv5gl7dWVo7UPQWMx4bohxhK2,63,98.0,50.0,0.05,short,1326.4000000001397,1.3264000000001397,1956.5999999998603,1.9565999999998602,True,True
rUuJv5gl7dWVo7UPQWMx4bohxhK2,63,99.0,600.0,0.6,medium_long,798.7000000001863,0.7987000000001863,1076.9000000001397,1.0769000000001396,True,True
rUuJv5gl7dWVo7UPQWMx4bohxhK2,63,100.0,1200.0,1.2,long,1004.3999999999068,1.0043999999999067,923.3000000000466,0.9233000000000465,True,True
rUuJv5gl7dWVo7UPQWMx4bohxhK2,63,101.0,1200.0,1.2,long,1000.5,1.0005,971.6999999999534,0.9716999999999534,True,True
rUuJv5gl7dWVo7UPQWMx4bohxhK2,63,102.0,300.0,0.3,medium_long,2001.1999999999532,2.0011999999999532,2354.100000000093,2.354100000000093,True,True
rUuJv5gl7dWVo7UPQWMx4bohxhK2,63,103.0,600.0,0.6,medium_long,983.0,0.983,1170.0,1.17,True,True
rUuJv5gl7dWVo7UPQWMx4bohxhK2,63,104.0,1200.0,1.2,long,843.1000000000931,0.8431000000000931,965.1000000000932,0.9651000000000932,True,True
rUuJv5gl7dWVo7UPQWMx4bohxhK2,63,105.0,50.0,0.05,short,1437.6000000000931,1.437600000000093,2436.199999999953,2.436199999999953,True,True
rUuJv5gl7dWVo7UPQWMx4bohxhK2,63,106.0,600.0,0.6,medium_long,1332.5999999998603,1.3325999999998603,2649.0,2.649,True,True
rUuJv5gl7dWVo7UPQWMx4bohxhK2,63,107.0,600.0,0.6,medium_long,674.6000000000931,0.6746000000000931,775.5999999998603,0.7755999999998603,True,True
rUuJv5gl7dWVo7UPQWMx4bohxhK2,63,108.0,300.0,0.3,medium_long,648.1999999999534,0.6481999999999535,1570.3000000000466,1.5703000000000467,True,True
rUuJv5gl7dWVo7UPQWMx4bohxhK2,63,109.0,600.0,0.6,medium_long,1524.9000000001397,1.5249000000001396,1477.8000000000466,1.4778000000000466,True,True
rUuJv5gl7dWVo7UPQWMx4bohxhK2,63,110.0,1200.0,1.2,long,853.0999999998603,0.8530999999998603,749.5,0.7495,True,True
rUuJv5gl7dWVo7UPQWMx4bohxhK2,63,113.0,1200.0,1.2,long,1144.5,1.1445,911.8999999999068,0.9118999999999068,True,True
rUuJv5gl7dWVo7UPQWMx4bohxhK2,63,114.0,150.0,0.15,medium_short,1258.5,1.2585,2044.100000000093,2.044100000000093,True,True
rUuJv5gl7dWVo7UPQWMx4bohxhK2,63,115.0,1200.0,1.2,long,809.5,0.8095,555.4000000001397,0.5554000000001397,True,True
rUuJv5gl7dWVo7UPQWMx4bohxhK2,63,116.0,150.0,0.15,medium_short,2468.0999999998603,2.4680999999998603,2743.199999999953,2.743199999999953,True,True
rUuJv5gl7dWVo7UPQWMx4bohxhK2,63,117.0,600.0,0.6,medium_long,1051.0,1.051,988.6999999999534,0.9886999999999534,True,True
rUuJv5gl7dWVo7UPQWMx4bohxhK2,63,118.0,300.0,0.3,medium_long,1289.8999999999069,1.2898999999999068,1359.7999999998135,1.3597999999998136,True,True
rUuJv5gl7dWVo7UPQWMx4bohxhK2,63,119.0,1200.0,1.2,long,761.6000000000931,0.7616000000000931,1110.0999999998603,1.1100999999998602,True,True
xyAILKfYP2M8GqAai11x6NT7IcP2,75,0.0,600.0,0.6,medium_long,1053.7999999998135,1.0537999999998136,791.1000000000931,0.7911000000000932,True,True
xyAILKfYP2M8GqAai11x6NT7IcP2,75,1.0,600.0,0.6,medium_long,1192.1999999997206,1.1921999999997206,781.5,0.7815,True,True
xyAILKfYP2M8GqAai11x6NT7IcP2,75,2.0,150.0,0.15,medium_short,672.5,0.6725,741.5,0.7415,True,True
xyAILKfYP2M8GqAai11x6NT7IcP2,75,3.0,300.0,0.3,medium_long,865.0,0.865,796.7000000001863,0.7967000000001863,True,True
xyAILKfYP2M8GqAai11x6NT7IcP2,75,4.0,600.0,0.6,medium_long,913.7000000001864,0.9137000000001864,543.8999999999069,0.5438999999999069,True,True
xyAILKfYP2M8GqAai11x6NT7IcP2,75,5.0,50.0,0.05,short,1237.3999999999069,1.2373999999999068,1472.8000000002794,1.4728000000002794,True,True
xyAILKfYP2M8GqAai11x6NT7IcP2,75,6.0,1200.0,1.2,long,1133.0999999996277,1.1330999999996276,615.2999999998137,0.6152999999998138,True,True
xyAILKfYP2M8GqAai11x6NT7IcP2,75,7.0,1200.0,1.2,long,767.3999999999069,0.7673999999999068,393.29999999981374,0.39329999999981374,True,True
xyAILKfYP2M8GqAai11x6NT7IcP2,75,8.0,300.0,0.3,medium_long,808.7000000001863,0.8087000000001863,994.3999999999068,0.9943999999999068,True,True
xyAILKfYP2M8GqAai11x6NT7IcP2,75,9.0,300.0,0.3,medium_long,1134.2000000001865,1.1342000000001864,1203.2999999998135,1.2032999999998135,True,True
xyAILKfYP2M8GqAai11x6NT7IcP2,75,10.0,50.0,0.05,short,898.5999999996275,0.8985999999996275,1089.0,1.089,True,True
xyAILKfYP2M8GqAai11x6NT7IcP2,75,11.0,50.0,0.05,short,1794.7000000001865,1.7947000000001865,1994.8999999999069,1.9948999999999069,True,True
xyAILKfYP2M8GqAai11x6NT7IcP2,75,12.0,50.0,0.05,short,918.8999999999068,0.9188999999999068,1618.2000000001865,1.6182000000001866,True,True
xyAILKfYP2M8GqAai11x6NT7IcP2,75,13.0,50.0,0.05,short,1239.2000000001865,1.2392000000001866,1873.3999999999069,1.873399999999907,True,True
xyAILKfYP2M8GqAai11x6NT7IcP2,75,14.0,50.0,0.05,short,860.1999999997206,0.8601999999997206,1314.7999999998135,1.3147999999998135,True,True
xyAILKfYP2M8GqAai11x6NT7IcP2,75,15.0,150.0,0.15,medium_short,1371.7999999998135,1.3717999999998136,1457.0,1.457,True,True
xyAILKfYP2M8GqAai11x6NT7IcP2,75,16.0,150.0,0.15,medium_short,1464.7000000001865,1.4647000000001864,2017.5,2.0175,True,True
xyAILKfYP2M8GqAai11x6NT7IcP2,75,17.0,50.0,0.05,short,2664.2999999998137,2.664299999999814,1403.7999999998135,1.4037999999998134,True,True
xyAILKfYP2M8GqAai11x6NT7IcP2,75,18.0,1200.0,1.2,long,807.8999999999069,0.8078999999999069,528.2000000001863,0.5282000000001863,True,True
xyAILKfYP2M8GqAai11x6NT7IcP2,75,19.0,50.0,0.05,short,805.0,0.805,1457.1999999997206,1.4571999999997205,True,True
xyAILKfYP2M8GqAai11x6NT7IcP2,75,20.0,1200.0,1.2,long,769.8000000002794,0.7698000000002794,450.5,0.4505,True,True
xyAILKfYP2M8GqAai11x6NT7IcP2,75,21.0,1200.0,1.2,long,869.2999999998137,0.8692999999998138,721.2999999998137,0.7212999999998138,True,True
xyAILKfYP2M8GqAai11x6NT7IcP2,75,22.0,1200.0,1.2,long,934.6999999997206,0.9346999999997206,546.8000000002794,0.5468000000002794,True,True
xyAILKfYP2M8GqAai11x6NT7IcP2,75,23.0,50.0,0.05,short,1144.7000000001865,1.1447000000001866,1515.1000000000931,1.5151000000000932,True,True
xyAILKfYP2M8GqAai11x6NT7IcP2,75,24.0,1200.0,1.2,long,853.0,0.853,440.0999999996274,0.4400999999996274,True,True
xyAILKfYP2M8GqAai11x6NT7IcP2,75,25.0,150.0,0.15,medium_short,1558.6999999997206,1.5586999999997206,2201.600000000093,2.2016000000000933,True,True
xyAILKfYP2M8GqAai11x6NT7IcP2,75,26.0,600.0,0.6,medium_long,624.2999999998137,0.6242999999998138,670.0,0.67,True,True
xyAILKfYP2M8GqAai11x6NT7IcP2,75,27.0,150.0,0.15,medium_short,914.9000000003724,0.9149000000003724,1222.1000000000931,1.2221000000000932,True,True
xyAILKfYP2M8GqAai11x6NT7IcP2,75,28.0,300.0,0.3,medium_long,1512.1000000000931,1.512100000000093,1765.7999999998135,1.7657999999998135,True,True
xyAILKfYP2M8GqAai11x6NT7IcP2,75,29.0,300.0,0.3,medium_long,843.6000000000931,0.8436000000000932,1088.7999999998135,1.0887999999998135,True,True
xyAILKfYP2M8GqAai11x6NT7IcP2,75,30.0,600.0,0.6,medium_long,1153.7000000001865,1.1537000000001865,1014.5,1.0145,True,True
xyAILKfYP2M8GqAai11x6NT7IcP2,75,31.0,1200.0,1.2,long,647.5,0.6475,523.0,0.523,True,True
xyAILKfYP2M8GqAai11x6NT7IcP2,75,32.0,300.0,0.3,medium_long,646.2000000001863,0.6462000000001863,942.5,0.9425,True,True
xyAILKfYP2M8GqAai11x6NT7IcP2,75,33.0,300.0,0.3,medium_long,990.0,0.99,1227.7999999998135,1.2277999999998135,True,True
xyAILKfYP2M8GqAai11x6NT7IcP2,75,34.0,300.0,0.3,medium_long,966.8999999999068,0.9668999999999067,1078.2999999998135,1.0782999999998135,True,True
xyAILKfYP2M8GqAai11x6NT7IcP2,75,35.0,50.0,0.05,short,859.3999999999069,0.8593999999999069,1386.3999999999069,1.3863999999999068,True,True
xyAILKfYP2M8GqAai11x6NT7IcP2,75,36.0,1200.0,1.2,long,823.1000000000931,0.8231000000000931,573.6999999997206,0.5736999999997207,True,True
xyAILKfYP2M8GqAai11x6NT7IcP2,75,37.0,300.0,0.3,medium_long,1278.7000000001865,1.2787000000001865,1634.0,1.634,True,True
xyAILKfYP2M8GqAai11x6NT7IcP2,75,38.0,300.0,0.3,medium_long,1420.5,1.4205,1627.3999999999069,1.627399999999907,True,True
xyAILKfYP2M8GqAai11x6NT7IcP2,75,39.0,150.0,0.15,medium_short,901.4000000003724,0.9014000000003725,1064.2999999998135,1.0642999999998135,True,True
xyAILKfYP2M8GqAai11x6NT7IcP2,75,40.0,50.0,0.05,short,1943.600000000093,1.9436000000000928,2361.899999999907,2.361899999999907,True,True
xyAILKfYP2M8GqAai11x6NT7IcP2,75,41.0,600.0,0.6,medium_long,904.6999999997206,0.9046999999997206,697.1999999997206,0.6971999999997206,True,True
xyAILKfYP2M8GqAai11x6NT7IcP2,75,42.0,600.0,0.6,medium_long,878.8000000002794,0.8788000000002794,677.4000000003725,0.6774000000003725,True,True
xyAILKfYP2M8GqAai11x6NT7IcP2,75,43.0,600.0,0.6,medium_long,853.5,0.8535,695.8999999999069,0.6958999999999068,True,True
xyAILKfYP2M8GqAai11x6NT7IcP2,75,44.0,600.0,0.6,medium_long,935.1999999997206,0.9351999999997206,662.0999999996275,0.6620999999996274,True,True
xyAILKfYP2M8GqAai11x6NT7IcP2,75,45.0,150.0,0.15,medium_short,718.1000000000931,0.7181000000000931,853.1999999997206,0.8531999999997206,True,True
xyAILKfYP2M8GqAai11x6NT7IcP2,75,46.0,600.0,0.6,medium_long,760.0,0.76,436.4000000003725,0.4364000000003725,True,True
xyAILKfYP2M8GqAai11x6NT7IcP2,75,47.0,300.0,0.3,medium_long,890.0,0.89,900.3999999999069,0.9003999999999068,True,True
xyAILKfYP2M8GqAai11x6NT7IcP2,75,48.0,50.0,0.05,short,1490.5,1.4905,2012.8999999999069,2.012899999999907,True,True
xyAILKfYP2M8GqAai11x6NT7IcP2,75,49.0,600.0,0.6,medium_long,838.2999999998137,0.8382999999998137,1088.6999999997206,1.0886999999997207,True,True
xyAILKfYP2M8GqAai11x6NT7IcP2,75,50.0,300.0,0.3,medium_long,1001.7999999998136,1.0017999999998137,1250.8999999999069,1.2508999999999069,True,True
xyAILKfYP2M8GqAai11x6NT7IcP2,75,51.0,300.0,0.3,medium_long,1599.5999999996277,1.5995999999996278,1975.600000000093,1.9756000000000928,True,True
xyAILKfYP2M8GqAai11x6NT7IcP2,75,52.0,150.0,0.15,medium_short,1718.6000000000931,1.7186000000000932,2148.0,2.148,True,True
xyAILKfYP2M8GqAai11x6NT7IcP2,75,53.0,150.0,0.15,medium_short,1381.0,1.381,1779.7000000001865,1.7797000000001866,True,True
xyAILKfYP2M8GqAai11x6NT7IcP2,75,54.0,300.0,0.3,medium_long,981.0,0.981,975.1999999997206,0.9751999999997206,True,True
xyAILKfYP2M8GqAai11x6NT7IcP2,75,55.0,50.0,0.05,short,918.9000000003724,0.9189000000003724,1096.0999999996277,1.0960999999996277,True,True
xyAILKfYP2M8GqAai11x6NT7IcP2,75,56.0,50.0,0.05,short,683.1999999997206,0.6831999999997206,847.8999999999069,0.8478999999999068,True,True
xyAILKfYP2M8GqAai11x6NT7IcP2,75,57.0,600.0,0.6,medium_long,921.5,0.9215,685.5,0.6855,True,True
xyAILKfYP2M8GqAai11x6NT7IcP2,75,58.0,150.0,0.15,medium_short,1612.0,1.612,1798.6999999997206,1.7986999999997206,True,True
xyAILKfYP2M8GqAai11x6NT7IcP2,75,59.0,150.0,0.15,medium_short,566.3999999999069,0.5663999999999069,627.0999999996275,0.6270999999996275,True,True
xyAILKfYP2M8GqAai11x6NT7IcP2,75,60.0,600.0,0.6,medium_long,1476.9000000003723,1.4769000000003722,1248.1999999997206,1.2481999999997206,True,True
xyAILKfYP2M8GqAai11x6NT7IcP2,75,61.0,1200.0,1.2,long,992.6999999997206,0.9926999999997206,1090.7999999998135,1.0907999999998135,True,True
xyAILKfYP2M8GqAai11x6NT7IcP2,75,62.0,50.0,0.05,short,1048.0,1.048,1367.2000000001865,1.3672000000001865,True,True
xyAILKfYP2M8GqAai11x6NT7IcP2,75,63.0,50.0,0.05,short,1428.5,1.4285,1867.5,1.8675,True,True
xyAILKfYP2M8GqAai11x6NT7IcP2,75,64.0,50.0,0.05,short,953.6999999997206,0.9536999999997205,1299.5,1.2995,True,True
xyAILKfYP2M8GqAai11x6NT7IcP2,75,65.0,600.0,0.6,medium_long,955.6000000000932,0.9556000000000933,678.8999999999069,0.6788999999999069,True,True
xyAILKfYP2M8GqAai11x6NT7IcP2,75,66.0,50.0,0.05,short,623.5,0.6235,816.3999999999069,0.8163999999999069,True,True
xyAILKfYP2M8GqAai11x6NT7IcP2,75,67.0,300.0,0.3,medium_long,1139.2999999998135,1.1392999999998135,1055.5,1.0555,True,True
xyAILKfYP2M8GqAai11x6NT7IcP2,75,68.0,50.0,0.05,short,1218.3999999999069,1.218399999999907,1396.7000000001865,1.3967000000001866,True,True
xyAILKfYP2M8GqAai11x6NT7IcP2,75,69.0,1200.0,1.2,long,618.8000000002794,0.6188000000002793,507.89999999990687,0.5078999999999069,True,True
xyAILKfYP2M8GqAai11x6NT7IcP2,75,70.0,150.0,0.15,medium_short,925.1999999997206,0.9251999999997206,1085.8999999999069,1.0858999999999068,True,True
xyAILKfYP2M8GqAai11x6NT7IcP2,75,71.0,600.0,0.6,medium_long,687.3999999999069,0.6873999999999069,831.3999999999069,0.8313999999999069,True,True
xyAILKfYP2M8GqAai11x6NT7IcP2,75,72.0,600.0,0.6,medium_long,650.6000000000931,0.6506000000000931,570.0999999996275,0.5700999999996275,True,True
xyAILKfYP2M8GqAai11x6NT7IcP2,75,73.0,600.0,0.6,medium_long,962.9000000003724,0.9629000000003725,971.2999999998136,0.9712999999998136,True,True
xyAILKfYP2M8GqAai11x6NT7IcP2,75,74.0,50.0,0.05,short,1432.8999999999069,1.4328999999999068,1877.9000000003723,1.8779000000003723,True,True
xyAILKfYP2M8GqAai11x6NT7IcP2,75,75.0,150.0,0.15,medium_short,1353.5,1.3535,1921.6999999997208,1.9216999999997209,True,True
xyAILKfYP2M8GqAai11x6NT7IcP2,75,76.0,600.0,0.6,medium_long,698.8000000002794,0.6988000000002794,836.7000000001863,0.8367000000001863,True,True
xyAILKfYP2M8GqAai11x6NT7IcP2,75,77.0,300.0,0.3,medium_long,672.0,0.672,720.7999999998137,0.7207999999998137,True,True
xyAILKfYP2M8GqAai11x6NT7IcP2,75,78.0,150.0,0.15,medium_short,768.3999999999069,0.7683999999999068,1137.7000000001865,1.1377000000001865,True,True
xyAILKfYP2M8GqAai11x6NT7IcP2,75,79.0,1200.0,1.2,long,988.0,0.988,612.6000000000931,0.6126000000000932,True,True
xyAILKfYP2M8GqAai11x6NT7IcP2,75,80.0,50.0,0.05,short,1350.8999999999069,1.350899999999907,1729.8000000002794,1.7298000000002793,True,True
xyAILKfYP2M8GqAai11x6NT7IcP2,75,81.0,600.0,0.6,medium_long,712.6999999997206,0.7126999999997206,657.6999999997206,0.6576999999997206,True,True
xyAILKfYP2M8GqAai11x6NT7IcP2,75,82.0,1200.0,1.2,long,625.2000000001863,0.6252000000001863,514.6000000000931,0.5146000000000931,True,True
xyAILKfYP2M8GqAai11x6NT7IcP2,75,83.0,150.0,0.15,medium_short,1309.2000000001865,1.3092000000001864,1608.0999999996277,1.6080999999996277,True,True
xyAILKfYP2M8GqAai11x6NT7IcP2,75,84.0,1200.0,1.2,long,711.1999999997206,0.7111999999997206,653.8999999999069,0.6538999999999069,True,True
xyAILKfYP2M8GqAai11x6NT7IcP2,75,85.0,1200.0,1.2,long,532.2999999998137,0.5322999999998137,497.8000000002794,0.4978000000002794,True,True
xyAILKfYP2M8GqAai11x6NT7IcP2,75,86.0,150.0,0.15,medium_short,1036.8000000002794,1.0368000000002795,1686.8999999999069,1.6868999999999068,True,True
xyAILKfYP2M8GqAai11x6NT7IcP2,75,87.0,300.0,0.3,medium_long,1590.7000000001865,1.5907000000001865,1591.1999999997206,1.5911999999997206,True,True
xyAILKfYP2M8GqAai11x6NT7IcP2,75,88.0,1200.0,1.2,long,534.1999999997206,0.5341999999997206,591.6000000000931,0.5916000000000932,True,True
xyAILKfYP2M8GqAai11x6NT7IcP2,75,89.0,1200.0,1.2,long,603.9000000003725,0.6039000000003726,531.1000000000931,0.5311000000000932,True,True
xyAILKfYP2M8GqAai11x6NT7IcP2,75,90.0,150.0,0.15,medium_short,1210.2000000001865,1.2102000000001865,1410.2000000001865,1.4102000000001864,True,True
xyAILKfYP2M8GqAai11x6NT7IcP2,75,91.0,600.0,0.6,medium_long,577.3999999999069,0.5773999999999069,442.60000000009313,0.44260000000009314,True,True
xyAILKfYP2M8GqAai11x6NT7IcP2,75,92.0,300.0,0.3,medium_long,670.2999999998137,0.6702999999998137,860.7999999998137,0.8607999999998137,True,True
xyAILKfYP2M8GqAai11x6NT7IcP2,75,93.0,600.0,0.6,medium_long,728.7999999998137,0.7287999999998137,614.0,0.614,True,True
xyAILKfYP2M8GqAai11x6NT7IcP2,75,94.0,300.0,0.3,medium_long,638.1000000000931,0.6381000000000931,729.1999999997206,0.7291999999997206,True,True
xyAILKfYP2M8GqAai11x6NT7IcP2,75,95.0,600.0,0.6,medium_long,1423.4000000003723,1.4234000000003724,1824.0999999996277,1.8240999999996277,True,True
xyAILKfYP2M8GqAai11x6NT7IcP2,75,96.0,150.0,0.15,medium_short,1263.0999999996277,1.2630999999996277,1539.8999999999069,1.5398999999999068,True,True
xyAILKfYP2M8GqAai11x6NT7IcP2,75,97.0,150.0,0.15,medium_short,951.5999999996276,0.9515999999996276,1236.0,1.236,True,True
xyAILKfYP2M8GqAai11x6NT7IcP2,75,98.0,600.0,0.6,medium_long,883.8999999999069,0.8838999999999069,669.3999999999069,0.6693999999999068,True,True
xyAILKfYP2M8GqAai11x6NT7IcP2,75,99.0,300.0,0.3,medium_long,829.4000000003725,0.8294000000003725,1285.8999999999069,1.2858999999999068,True,True
xyAILKfYP2M8GqAai11x6NT7IcP2,75,100.0,50.0,0.05,short,1364.9000000003723,1.3649000000003724,1665.8999999999069,1.665899999999907,True,True
xyAILKfYP2M8GqAai11x6NT7IcP2,75,101.0,600.0,0.6,medium_long,1085.3999999999069,1.0853999999999069,912.1000000000932,0.9121000000000933,True,True
xyAILKfYP2M8GqAai11x6NT7IcP2,75,102.0,300.0,0.3,medium_long,1434.3999999999069,1.4343999999999069,1616.1000000000931,1.6161000000000931,True,True
xyAILKfYP2M8GqAai11x6NT7IcP2,75,103.0,1200.0,1.2,long,1010.7000000001864,1.0107000000001864,604.2999999998137,0.6042999999998138,True,True
xyAILKfYP2M8GqAai11x6NT7IcP2,75,104.0,300.0,0.3,medium_long,867.8999999999069,0.8678999999999069,826.2999999998137,0.8262999999998137,True,True
xyAILKfYP2M8GqAai11x6NT7IcP2,75,105.0,300.0,0.3,medium_long,1059.7000000001865,1.0597000000001864,1251.3999999999069,1.2513999999999068,True,True
xyAILKfYP2M8GqAai11x6NT7IcP2,75,107.0,150.0,0.15,medium_short,2390.100000000093,2.390100000000093,2603.100000000093,2.6031000000000932,True,True
xyAILKfYP2M8GqAai11x6NT7IcP2,75,108.0,300.0,0.3,medium_long,833.5,0.8335,789.3999999999069,0.7893999999999068,True,True
xyAILKfYP2M8GqAai11x6NT7IcP2,75,109.0,150.0,0.15,medium_short,1537.2000000001865,1.5372000000001864,2083.7999999998137,2.0837999999998136,True,True
xyAILKfYP2M8GqAai11x6NT7IcP2,75,110.0,1200.0,1.2,long,825.7000000001863,0.8257000000001863,755.4000000003725,0.7554000000003726,True,True
xyAILKfYP2M8GqAai11x6NT7IcP2,75,111.0,150.0,0.15,medium_short,1475.6000000000931,1.475600000000093,1609.3999999999069,1.609399999999907,True,True
xyAILKfYP2M8GqAai11x6NT7IcP2,75,112.0,50.0,0.05,short,1239.6999999997206,1.2396999999997207,1668.5,1.6685,True,True
xyAILKfYP2M8GqAai11x6NT7IcP2,75,113.0,50.0,0.05,short,1558.5,1.5585,1930.600000000093,1.930600000000093,True,True
xyAILKfYP2M8GqAai11x6NT7IcP2,75,114.0,1200.0,1.2,long,924.8999999999068,0.9248999999999068,597.0,0.597,True,True
xyAILKfYP2M8GqAai11x6NT7IcP2,75,115.0,150.0,0.15,medium_short,972.1000000000932,0.9721000000000932,1084.1000000000931,1.084100000000093,True,True
xyAILKfYP2M8GqAai11x6NT7IcP2,75,116.0,1200.0,1.2,long,824.5,0.8245,561.1999999997206,0.5611999999997206,True,True
xyAILKfYP2M8GqAai11x6NT7IcP2,75,117.0,1200.0,1.2,long,797.8999999999069,0.7978999999999069,952.0,0.952,True,True
xyAILKfYP2M8GqAai11x6NT7IcP2,75,118.0,150.0,0.15,medium_short,1744.7999999998135,1.7447999999998136,1945.0,1.945,True,True
xyAILKfYP2M8GqAai11x6NT7IcP2,75,119.0,1200.0,1.2,long,872.1000000000931,0.8721000000000931,738.6000000000931,0.7386000000000932,True,True
pcbRW89vVJcviD87V3uxyG4I9st2,60,0.0,50.0,0.05,short,2004.90000000014,2.00490000000014,1263.9000000001397,1.2639000000001397,True,True
pcbRW89vVJcviD87V3uxyG4I9st2,60,1.0,1200.0,1.2,long,1474.3999999999069,1.474399999999907,754.6999999999534,0.7546999999999534,True,True
pcbRW89vVJcviD87V3uxyG4I9st2,60,2.0,1200.0,1.2,long,805.6000000000931,0.8056000000000931,993.6999999999534,0.9936999999999534,True,True
pcbRW89vVJcviD87V3uxyG4I9st2,60,3.0,1200.0,1.2,long,542.5999999998603,0.5425999999998603,382.10000000009313,0.38210000000009314,True,True
pcbRW89vVJcviD87V3uxyG4I9st2,60,4.0,150.0,0.15,medium_short,648.1999999999534,0.6481999999999535,852.9000000001397,0.8529000000001397,True,True
pcbRW89vVJcviD87V3uxyG4I9st2,60,5.0,50.0,0.05,short,613.3000000000466,0.6133000000000466,735.0,0.735,True,True
pcbRW89vVJcviD87V3uxyG4I9st2,60,6.0,300.0,0.3,medium_long,615.8000000000466,0.6158000000000465,499.5999999998603,0.4995999999998603,True,True
pcbRW89vVJcviD87V3uxyG4I9st2,60,7.0,300.0,0.3,medium_long,574.5999999998603,0.5745999999998603,481.5,0.4815,True,True
pcbRW89vVJcviD87V3uxyG4I9st2,60,8.0,600.0,0.6,medium_long,793.5,0.7935,513.6000000000931,0.5136000000000931,True,True
pcbRW89vVJcviD87V3uxyG4I9st2,60,9.0,150.0,0.15,medium_short,901.0,0.901,1333.5,1.3335,True,True
pcbRW89vVJcviD87V3uxyG4I9st2,60,10.0,50.0,0.05,short,597.9000000001397,0.5979000000001397,764.6000000000931,0.7646000000000931,True,True
pcbRW89vVJcviD87V3uxyG4I9st2,60,11.0,150.0,0.15,medium_short,767.8999999999069,0.7678999999999069,1065.8000000000466,1.0658000000000465,True,True
pcbRW89vVJcviD87V3uxyG4I9st2,60,12.0,300.0,0.3,medium_long,613.0999999998603,0.6130999999998603,843.1000000000931,0.8431000000000931,True,True
pcbRW89vVJcviD87V3uxyG4I9st2,60,13.0,600.0,0.6,medium_long,1030.5999999998603,1.0305999999998603,901.6999999999534,0.9016999999999534,True,True
pcbRW89vVJcviD87V3uxyG4I9st2,60,16.0,600.0,0.6,medium_long,1980.3999999999069,1.980399999999907,2687.40000000014,2.68740000000014,True,True
pcbRW89vVJcviD87V3uxyG4I9st2,60,17.0,300.0,0.3,medium_long,712.5,0.7125,632.1999999999534,0.6321999999999535,True,True
pcbRW89vVJcviD87V3uxyG4I9st2,60,18.0,600.0,0.6,medium_long,765.1999999999534,0.7651999999999535,774.5,0.7745,True,True
pcbRW89vVJcviD87V3uxyG4I9st2,60,19.0,50.0,0.05,short,719.6999999999534,0.7196999999999535,1159.6000000000931,1.1596000000000932,True,True
pcbRW89vVJcviD87V3uxyG4I9st2,60,20.0,600.0,0.6,medium_long,711.1000000000931,0.7111000000000931,927.5,0.9275,True,True
pcbRW89vVJcviD87V3uxyG4I9st2,60,21.0,150.0,0.15,medium_short,689.0999999998603,0.6890999999998603,839.1999999999534,0.8391999999999534,True,True
pcbRW89vVJcviD87V3uxyG4I9st2,60,22.0,600.0,0.6,medium_long,887.8000000000466,0.8878000000000466,570.5,0.5705,True,True
pcbRW89vVJcviD87V3uxyG4I9st2,60,23.0,1200.0,1.2,long,751.3999999999069,0.7513999999999069,646.4000000001397,0.6464000000001398,True,True
pcbRW89vVJcviD87V3uxyG4I9st2,60,24.0,50.0,0.05,short,662.5,0.6625,1027.3999999999069,1.0273999999999068,True,True
pcbRW89vVJcviD87V3uxyG4I9st2,60,25.0,150.0,0.15,medium_short,677.6999999999534,0.6776999999999535,721.9000000001397,0.7219000000001397,True,True
pcbRW89vVJcviD87V3uxyG4I9st2,60,26.0,1200.0,1.2,long,718.6999999999534,0.7186999999999535,509.0,0.509,True,True
pcbRW89vVJcviD87V3uxyG4I9st2,60,27.0,50.0,0.05,short,735.5,0.7355,726.5,0.7265,True,True
pcbRW89vVJcviD87V3uxyG4I9st2,60,28.0,600.0,0.6,medium_long,898.1999999999534,0.8981999999999535,639.9000000001397,0.6399000000001397,True,True
pcbRW89vVJcviD87V3uxyG4I9st2,60,29.0,150.0,0.15,medium_short,1195.7000000001865,1.1957000000001865,1290.0,1.29,True,True
pcbRW89vVJcviD87V3uxyG4I9st2,60,30.0,50.0,0.05,short,713.1000000000931,0.7131000000000931,964.2999999998136,0.9642999999998136,True,True
pcbRW89vVJcviD87V3uxyG4I9st2,60,31.0,50.0,0.05,short,663.6000000000931,0.6636000000000931,714.4000000001397,0.7144000000001397,True,True
pcbRW89vVJcviD87V3uxyG4I9st2,60,32.0,300.0,0.3,medium_long,712.5,0.7125,579.2000000001863,0.5792000000001862,True,True
pcbRW89vVJcviD87V3uxyG4I9st2,60,33.0,150.0,0.15,medium_short,609.6000000000931,0.6096000000000932,705.5,0.7055,True,True
pcbRW89vVJcviD87V3uxyG4I9st2,60,34.0,1200.0,1.2,long,600.6000000000931,0.6006000000000932,297.19999999995343,0.29719999999995345,True,True
pcbRW89vVJcviD87V3uxyG4I9st2,60,35.0,50.0,0.05,short,544.5999999998603,0.5445999999998603,669.0,0.669,True,True
pcbRW89vVJcviD87V3uxyG4I9st2,60,36.0,150.0,0.15,medium_short,617.4000000001397,0.6174000000001397,611.6999999999534,0.6116999999999534,True,True
pcbRW89vVJcviD87V3uxyG4I9st2,60,37.0,1200.0,1.2,long,587.4000000001397,0.5874000000001397,474.7000000001863,0.4747000000001863,True,True
pcbRW89vVJcviD87V3uxyG4I9st2,60,38.0,50.0,0.05,short,968.5,0.9685,1027.2000000001865,1.0272000000001864,True,True
pcbRW89vVJcviD87V3uxyG4I9st2,60,39.0,300.0,0.3,medium_long,708.8999999999069,0.7088999999999068,539.7000000001863,0.5397000000001863,True,True
pcbRW89vVJcviD87V3uxyG4I9st2,60,40.0,1200.0,1.2,long,1481.6000000000931,1.481600000000093,497.80000000004657,0.49780000000004654,True,True
pcbRW89vVJcviD87V3uxyG4I9st2,60,41.0,150.0,0.15,medium_short,655.1000000000931,0.6551000000000932,660.6999999999534,0.6606999999999534,True,True
pcbRW89vVJcviD87V3uxyG4I9st2,60,42.0,1200.0,1.2,long,1542.1000000000931,1.542100000000093,421.10000000009313,0.4211000000000931,True,True
pcbRW89vVJcviD87V3uxyG4I9st2,60,43.0,600.0,0.6,medium_long,1130.2999999998135,1.1302999999998136,895.1000000000931,0.8951000000000932,True,True
pcbRW89vVJcviD87V3uxyG4I9st2,60,44.0,150.0,0.15,medium_short,1428.6000000000931,1.4286000000000931,1429.8000000000466,1.4298000000000466,True,True
pcbRW89vVJcviD87V3uxyG4I9st2,60,45.0,1200.0,1.2,long,1576.6999999999534,1.5766999999999534,466.30000000004657,0.46630000000004657,True,True
pcbRW89vVJcviD87V3uxyG4I9st2,60,46.0,600.0,0.6,medium_long,1073.3000000000466,1.0733000000000466,535.0,0.535,True,True
pcbRW89vVJcviD87V3uxyG4I9st2,60,47.0,1200.0,1.2,long,1639.4000000001397,1.6394000000001396,518.8000000000466,0.5188000000000466,True,True
pcbRW89vVJcviD87V3uxyG4I9st2,60,48.0,150.0,0.15,medium_short,808.5,0.8085,724.8000000000466,0.7248000000000465,True,True
pcbRW89vVJcviD87V3uxyG4I9st2,60,49.0,50.0,0.05,short,672.8999999999069,0.6728999999999069,692.8999999999069,0.6928999999999068,True,True
pcbRW89vVJcviD87V3uxyG4I9st2,60,50.0,50.0,0.05,short,876.8000000000466,0.8768000000000465,899.5,0.8995,True,True
pcbRW89vVJcviD87V3uxyG4I9st2,60,51.0,50.0,0.05,short,751.0,0.751,764.5,0.7645,True,True
pcbRW89vVJcviD87V3uxyG4I9st2,60,52.0,600.0,0.6,medium_long,986.0999999998604,0.9860999999998604,459.10000000009313,0.45910000000009316,True,True
pcbRW89vVJcviD87V3uxyG4I9st2,60,53.0,300.0,0.3,medium_long,710.0999999998603,0.7100999999998603,498.39999999990687,0.49839999999990686,True,True
pcbRW89vVJcviD87V3uxyG4I9st2,60,54.0,1200.0,1.2,long,1638.8000000000466,1.6388000000000467,494.0999999998603,0.4940999999998603,True,True
pcbRW89vVJcviD87V3uxyG4I9st2,60,55.0,1200.0,1.2,long,1522.2000000001865,1.5222000000001865,403.60000000009313,0.4036000000000931,True,True
pcbRW89vVJcviD87V3uxyG4I9st2,60,56.0,300.0,0.3,medium_long,751.5,0.7515,542.9000000001397,0.5429000000001397,True,True
pcbRW89vVJcviD87V3uxyG4I9st2,60,57.0,300.0,0.3,medium_long,702.1000000000931,0.7021000000000931,496.39999999990687,0.49639999999990686,True,True
pcbRW89vVJcviD87V3uxyG4I9st2,60,58.0,150.0,0.15,medium_short,908.3999999999068,0.9083999999999067,855.9000000001397,0.8559000000001397,True,True
pcbRW89vVJcviD87V3uxyG4I9st2,60,59.0,50.0,0.05,short,1459.1000000000931,1.459100000000093,1764.6000000000931,1.7646000000000932,True,True
pcbRW89vVJcviD87V3uxyG4I9st2,60,60.0,1200.0,1.2,long,1572.5,1.5725,713.3000000000466,0.7133000000000466,True,True
pcbRW89vVJcviD87V3uxyG4I9st2,60,61.0,150.0,0.15,medium_short,1241.8999999999069,1.241899999999907,1477.8000000000466,1.4778000000000466,True,True
pcbRW89vVJcviD87V3uxyG4I9st2,60,62.0,150.0,0.15,medium_short,1051.0,1.051,956.1000000000932,0.9561000000000932,True,True
pcbRW89vVJcviD87V3uxyG4I9st2,60,63.0,1200.0,1.2,long,1611.8000000000466,1.6118000000000465,491.10000000009313,0.49110000000009313,True,True
pcbRW89vVJcviD87V3uxyG4I9st2,60,64.0,300.0,0.3,medium_long,698.4000000001397,0.6984000000001397,483.69999999995343,0.48369999999995344,True,True
pcbRW89vVJcviD87V3uxyG4I9st2,60,65.0,150.0,0.15,medium_short,1207.5,1.2075,1425.6000000000931,1.4256000000000932,True,True
pcbRW89vVJcviD87V3uxyG4I9st2,60,66.0,150.0,0.15,medium_short,537.2000000001863,0.5372000000001863,562.8000000000466,0.5628000000000466,True,True
pcbRW89vVJcviD87V3uxyG4I9st2,60,67.0,50.0,0.05,short,442.0,0.442,577.4000000001397,0.5774000000001397,True,True
pcbRW89vVJcviD87V3uxyG4I9st2,60,68.0,1200.0,1.2,long,465.10000000009313,0.4651000000000931,551.8999999999069,0.5518999999999069,True,True
pcbRW89vVJcviD87V3uxyG4I9st2,60,69.0,600.0,0.6,medium_long,503.30000000004657,0.5033000000000466,637.4000000001397,0.6374000000001397,True,True
pcbRW89vVJcviD87V3uxyG4I9st2,60,70.0,1200.0,1.2,long,1573.8999999999069,1.5738999999999068,444.80000000004657,0.44480000000004655,True,True
pcbRW89vVJcviD87V3uxyG4I9st2,60,71.0,50.0,0.05,short,705.1999999999534,0.7051999999999534,722.3000000000466,0.7223000000000466,True,True
pcbRW89vVJcviD87V3uxyG4I9st2,60,72.0,150.0,0.15,medium_short,640.0,0.64,578.7000000001863,0.5787000000001863,True,True
pcbRW89vVJcviD87V3uxyG4I9st2,60,73.0,150.0,0.15,medium_short,899.1999999999534,0.8991999999999535,913.7999999998136,0.9137999999998137,True,True
pcbRW89vVJcviD87V3uxyG4I9st2,60,74.0,300.0,0.3,medium_long,653.2000000001863,0.6532000000001863,461.19999999995343,0.4611999999999534,True,True
pcbRW89vVJcviD87V3uxyG4I9st2,60,75.0,1200.0,1.2,long,1336.5,1.3365,438.29999999981374,0.4382999999998137,True,True
pcbRW89vVJcviD87V3uxyG4I9st2,60,76.0,1200.0,1.2,long,1570.0999999998603,1.5700999999998604,468.89999999990687,0.4688999999999069,True,True
pcbRW89vVJcviD87V3uxyG4I9st2,60,77.0,50.0,0.05,short,739.8000000000466,0.7398000000000465,775.5,0.7755,True,True
pcbRW89vVJcviD87V3uxyG4I9st2,60,78.0,300.0,0.3,medium_long,711.0,0.711,501.5999999998603,0.5015999999998603,True,True
pcbRW89vVJcviD87V3uxyG4I9st2,60,79.0,150.0,0.15,medium_short,1430.5,1.4305,1346.0,1.346,True,True
pcbRW89vVJcviD87V3uxyG4I9st2,60,80.0,300.0,0.3,medium_long,723.3000000000466,0.7233000000000466,502.19999999995343,0.5021999999999535,True,True
pcbRW89vVJcviD87V3uxyG4I9st2,60,81.0,1200.0,1.2,long,1538.1999999999534,1.5381999999999534,411.0,0.411,True,True
pcbRW89vVJcviD87V3uxyG4I9st2,60,82.0,150.0,0.15,medium_short,738.1000000000931,0.7381000000000931,686.6999999999534,0.6866999999999535,True,True
pcbRW89vVJcviD87V3uxyG4I9st2,60,83.0,600.0,0.6,medium_long,903.6000000000932,0.9036000000000932,376.0,0.376,True,True
pcbRW89vVJcviD87V3uxyG4I9st2,60,84.0,600.0,0.6,medium_long,903.8000000000466,0.9038000000000466,678.0,0.678,True,True
pcbRW89vVJcviD87V3uxyG4I9st2,60,85.0,1200.0,1.2,long,1546.5,1.5465,421.0,0.421,True,True
pcbRW89vVJcviD87V3uxyG4I9st2,60,86.0,300.0,0.3,medium_long,837.0999999998603,0.8370999999998603,612.8000000000466,0.6128000000000465,True,True
pcbRW89vVJcviD87V3uxyG4I9st2,60,87.0,150.0,0.15,medium_short,804.5,0.8045,720.4000000001397,0.7204000000001397,True,True
pcbRW89vVJcviD87V3uxyG4I9st2,60,88.0,50.0,0.05,short,644.5,0.6445,676.8999999999069,0.6768999999999069,True,True
pcbRW89vVJcviD87V3uxyG4I9st2,60,89.0,50.0,0.05,short,582.2000000001863,0.5822000000001862,591.0,0.591,True,True
pcbRW89vVJcviD87V3uxyG4I9st2,60,90.0,600.0,0.6,medium_long,845.5999999998603,0.8455999999998604,843.1000000000931,0.8431000000000931,True,True
pcbRW89vVJcviD87V3uxyG4I9st2,60,91.0,300.0,0.3,medium_long,687.5,0.6875,469.5,0.4695,True,True
pcbRW89vVJcviD87V3uxyG4I9st2,60,92.0,300.0,0.3,medium_long,684.7999999998137,0.6847999999998138,463.69999999995343,0.4636999999999534,True,True
