participant_id,prp_t1_cost,prp_rt1_rt2_coupling,prp_order_violation_rate,prp_t1_only_rate,prp_t2_only_rate,prp_t2_while_t1_pending_rate,prp_iri_mean,prp_iri_median,prp_iri_p10,prp_iri_p25,prp_iri_grouping_rate_100,prp_t2_acc_short,prp_t2_acc_long,prp_t2_acc_cost,prp_t2_trials,prp_t2_rt_mean_soa_50,prp_t2_rt_median_soa_50,prp_t1_rt_mean_soa_50,prp_t1_rt_median_soa_50,prp_t1_acc_soa_50,prp_t2_acc_soa_50,prp_both_correct_soa_50,prp_timeout_rate_soa_50,prp_order_error_soa_50,prp_rt1_rt2_coupling_soa_50,prp_t2_rt_mean_soa_150,prp_t2_rt_median_soa_150,prp_t1_rt_mean_soa_150,prp_t1_rt_median_soa_150,prp_t1_acc_soa_150,prp_t2_acc_soa_150,prp_both_correct_soa_150,prp_timeout_rate_soa_150,prp_order_error_soa_150,prp_rt1_rt2_coupling_soa_150,prp_t2_rt_mean_soa_300,prp_t2_rt_median_soa_300,prp_t1_rt_mean_soa_300,prp_t1_rt_median_soa_300,prp_t1_acc_soa_300,prp_t2_acc_soa_300,prp_both_correct_soa_300,prp_timeout_rate_soa_300,prp_order_error_soa_300,prp_rt1_rt2_coupling_soa_300,prp_t2_rt_mean_soa_600,prp_t2_rt_median_soa_600,prp_t1_rt_mean_soa_600,prp_t1_rt_median_soa_600,prp_t1_acc_soa_600,prp_t2_acc_soa_600,prp_both_correct_soa_600,prp_timeout_rate_soa_600,prp_order_error_soa_600,prp_rt1_rt2_coupling_soa_600,prp_t2_rt_mean_soa_1200,prp_t2_rt_median_soa_1200,prp_t1_rt_mean_soa_1200,prp_t1_rt_median_soa_1200,prp_t1_acc_soa_1200,prp_t2_acc_soa_1200,prp_both_correct_soa_1200,prp_timeout_rate_soa_1200,prp_order_error_soa_1200,prp_rt1_rt2_coupling_soa_1200,stroop_rt_interference,stroop_rt_facilitation,stroop_rt_incong_minus_neutral,stroop_rt_neutral_minus_cong,stroop_rt_interference_correct,stroop_rt_facilitation_correct,stroop_rt_incong_minus_neutral_correct,stroop_rt_neutral_minus_cong_correct,stroop_acc_interference,stroop_acc_facilitation,stroop_trials,stroop_ez_congruent_v,stroop_ez_congruent_a,stroop_ez_congruent_t0,stroop_ez_congruent_sv,stroop_ez_congruent_sz,stroop_ez_congruent_st0,stroop_ez_incongruent_v,stroop_ez_incongruent_a,stroop_ez_incongruent_t0,stroop_ez_incongruent_sv,stroop_ez_incongruent_sz,stroop_ez_incongruent_st0,stroop_ez_neutral_v,stroop_ez_neutral_a,stroop_ez_neutral_t0,stroop_ez_neutral_sv,stroop_ez_neutral_sz,stroop_ez_neutral_st0,stroop_ez_congruent_v_sd,stroop_ez_incongruent_v_sd,stroop_ez_neutral_v_sd,stroop_ez_v_sd_interference,stroop_ez_v_interference,stroop_ez_a_interference,stroop_ez_t0_interference,wcst_trials,wcst_total_errors,wcst_error_rate,wcst_perseverative_errors,wcst_perseverative_error_rate,wcst_nonperseverative_errors,wcst_perseverative_responses,wcst_perseverative_response_percent,wcst_error_pr_ratio,wcst_error_npe_ratio,wcst_trials_to_first_category,wcst_categories_completed,wcst_trials_per_category_mean,wcst_trials_per_category_sd,wcst_trials_per_category_1,wcst_trials_per_category_2,wcst_trials_per_category_3,wcst_trials_per_category_4,wcst_trials_per_category_5,wcst_trials_per_category_6,wcst_completed_categories,wcst_total_trials_summary,wcst_total_correct_summary,wcst_failure_to_maintain_set,wcst_clr_count,wcst_clr_percent,wcst_learning_to_learn,wcst_learning_to_learn_heaton_clr_delta,wcst_learning_efficiency_delta_trials,wcst_trials_to_first_conceptual_resp,wcst_trials_to_first_conceptual_resp0,wcst_has_first_clr,wcst_category_clr_percents
06qcrpGKL6Vc3LVplFQC90VAcRm1,-36.570035463014165,0.3722033568220028,0.008333333333333333,0.0,0.0,0.008333333333333333,429.91848739493,303.0,137.7800000011921,204.5,0.05042016806722689,1.0,1.0,0.0,118,858.182608694486,850.1000000089407,683.1956521719694,701.9000000059605,1.0,1.0,1.0,0.0,0.041666666666666664,0.7502832255600699,762.0750000011176,748.5,657.4291666653007,624.6000000014901,1.0,1.0,1.0,0.0,0.0,0.7699906448664644,630.4565217384826,638.5999999940395,693.2608695645695,614.0,1.0,0.9583333333333334,0.9583333333333334,0.0,0.0,0.7719562720365002,487.8999999997516,459.34999999403954,679.9625000022352,630.3000000044703,1.0,1.0,1.0,0.0,0.0,0.5721960089342584,475.7541666664183,463.5,706.6083333337059,674.9999999925494,1.0,1.0,1.0,0.0,0.0,0.11523595814801707,55.011111111276705,-12.533333335485736,67.54444444676244,-12.533333335485736,49.00222222242087,-12.533333335485736,61.535555557906605,-12.533333335485736,-0.02777777777777779,0.0,108,0.008806436673665275,4.840413932446045,415.48923352052583,0.0,0.0,0.0,0.008616508433983974,4.126205050141807,505.5459768001484,0.0,0.0,0.0,0.009575541908632487,4.4516330435549065,444.15323624748123,0.0,0.0,0.0,,,,,-0.00018992823968130151,-0.7142088823042378,90.0567432796226,82,13,0.15853658536585366,9,10.975609756097562,4,25,30.48780487804878,0.6923076923076923,0.3076923076923077,14.0,6.0,13.666666666666666,2.9814239699997196,14.0,13.0,11.0,12.0,12.0,20.0,6.0,82.0,69.0,0.0,67.0,81.70731707317073,,4.135309135309143,-2.0,7.0,6.0,1.0,"[71.42857142857143, 76.92307692307693, 90.9090909090909, 83.33333333333334, 83.33333333333334, 85.0]"
0ZtXlQtAJkW6jS21vfMOtNL4OnL2,101.35605920442265,0.7447500276577393,0.0,0.0,0.0,0.0,467.4616666666688,356.45000000004075,153.26999999998952,216.10000000006403,0.06666666666666667,0.9791666666666666,0.9583333333333334,-0.02083333333333326,115,927.2347826087068,726.3999999999069,716.4565217391254,555.1000000000931,1.0,0.9583333333333334,0.9583333333333334,0.0,0.0,0.8857382764747871,823.9000000000038,691.5500000000466,653.1333333333314,577.5499999999884,1.0,1.0,1.0,0.0,0.0,0.7289945542438371,685.33333333335,576.0,797.7999999999967,624.9000000000233,1.0,0.875,0.875,0.0,0.0,0.9627538039623079,471.1666666666715,432.9000000000233,570.7458333333634,574.2500000000582,1.0,1.0,1.0,0.0,0.0,0.4066883941323295,405.2521739130455,382.5999999999767,582.7652173913185,565.0999999999767,1.0,0.9583333333333334,0.9583333333333334,0.0,0.0,0.281451673590989,85.79999999998836,107.87777777778035,-22.077777777791994,107.87777777778035,93.10857142856605,105.28706349207118,-12.178492063505132,105.28706349207118,0.0,0.02777777777777779,108,0.008605030126133043,4.131709022949265,396.72800531856603,0.0,0.0,0.0,0.006548780278472143,5.429023284193757,325.0959751369895,0.0,0.0,0.0,0.006752731795031265,6.312526554331459,274.3308652264307,0.0,0.0,0.0,,,,,-0.0020562498476609002,1.2973142612444928,-71.63203018157651,77,11,0.14285714285714285,8,10.38961038961039,3,28,36.36363636363637,0.7272727272727273,0.2727272727272727,10.0,6.0,12.833333333333334,2.4776781245530843,10.0,15.0,17.0,13.0,11.0,11.0,6.0,77.0,66.0,0.0,63.0,81.81818181818183,,4.417020887609127,2.333333333333334,3.0,2.0,1.0,"[100.0, 86.66666666666667, 58.82352941176471, 76.92307692307693, 90.9090909090909, 90.9090909090909]"
0d841i8KPjdjwCYfDuUUXj0SEjH2,-6.8991105547064535,0.7200624446282813,0.0,0.0,0.0,0.0,547.4783333460665,424.3000001908513,230.34000005724374,310.25,0.0,0.9583333333333334,0.9583333333333334,0.0,113,1213.4590908397329,1203.5499997138977,843.9227273680947,767.8499999046326,0.9166666666666666,0.9583333333333334,0.9166666666666666,0.0,0.0,0.6588740672905512,876.1863638270985,733.2000002861023,710.818181774833,582.4000000953674,0.9583333333333334,0.9583333333333334,0.9166666666666666,0.0,0.0,0.9257683303476314,1103.2916667461395,994.5500001907347,987.1000001033148,774.8500003814697,1.0,1.0,1.0,0.0,0.0,0.9217776441359459,830.1636363809758,564.3000001907349,962.1590910391374,801.4000000953674,1.0,0.9166666666666666,0.9166666666666666,0.0,0.0,0.9092559845230742,529.2304347494374,512.8000001907349,784.2695651261703,697.0,1.0,0.9583333333333334,0.9583333333333334,0.0,0.0,0.39503722912251493,272.66944448153174,228.0194445451101,44.64999993642164,228.0194445451101,278.45655465887376,225.17714294403322,53.279411714840535,225.17714294403322,-0.02777777777777779,0.02777777777777779,108,0.008070180430396324,4.40553726419573,494.1352381992674,0.0,0.0,0.0,0.00572677154854109,4.947313368520846,646.4273153431442,0.0,0.0,0.0,0.006431476075794003,6.627840680438304,476.14703688579334,0.0,0.0,0.0,,,,,-0.0023434088818552346,0.5417761043251161,152.29207714387678,68,8,0.11764705882352941,3,4.411764705882353,5,19,27.941176470588236,0.375,0.625,13.0,6.0,11.333333333333334,0.9428090415820634,13.0,12.0,11.0,10.0,11.0,11.0,6.0,68.0,60.0,0.0,60.0,88.23529411764706,,10.217560217560203,1.333333333333334,6.0,5.0,1.0,"[76.92307692307693, 83.33333333333334, 90.9090909090909, 100.0, 90.9090909090909, 90.9090909090909]"
0oa5NYVnIBS9NmrmRAZrahXDctP2,-149.72761628157355,0.6426007691563175,0.0,0.0,0.0,0.0,385.628333333383,248.79999999701977,110.04999999403954,144.85000000149012,0.06666666666666667,0.8958333333333334,1.0,0.10416666666666663,112,918.64545454559,737.5000000074506,767.6863636360927,579.6000000014901,1.0,0.9166666666666666,0.9166666666666666,0.0,0.0,0.9264312347448779,778.11428571386,638.2000000029802,688.5428571403027,525.1999999880791,1.0,0.875,0.875,0.0,0.0,0.8425661636573458,681.20909090882,545.4500000104308,783.4863636371764,604.6499999985099,0.9583333333333334,0.9583333333333334,0.9166666666666666,0.0,0.0,0.9419594516384083,508.71304347852004,453.2000000029802,730.1130434799453,622.5,1.0,0.9583333333333334,0.9583333333333334,0.0,0.0,0.8473365721948378,510.1249999993791,495.44999999552965,878.7625000011176,770.6499999985099,1.0,1.0,1.0,0.0,0.0,0.3612787523864113,-7.377777778026143,-34.38333333283663,27.005555554810485,-34.38333333283663,0.39899159632307146,-21.021008402910525,21.419999999233596,-21.021008402910525,0.02777777777777779,0.02777777777777779,108,0.008056442967241373,3.5167050217775504,363.23156119962493,0.0,0.0,0.0,0.008260341847846553,4.304117344025276,311.5791109589529,0.0,0.0,0.0,0.010000649795535261,3.55511705157067,368.3446663714938,0.0,0.0,0.0,,,,,0.00020389888060518002,0.7874123222477252,-51.65245024067201,73,10,0.136986301369863,6,8.21917808219178,4,18,24.65753424657534,0.6,0.4,13.0,6.0,12.166666666666666,0.6871842709362768,13.0,12.0,12.0,12.0,13.0,11.0,6.0,73.0,63.0,0.0,60.0,82.1917808219178,,2.525252525252526,0.3333333333333339,6.0,5.0,1.0,"[76.92307692307693, 83.33333333333334, 83.33333333333334, 83.33333333333334, 76.92307692307693, 90.9090909090909]"
146QT9LupyU2BAiTsB3PMIpVXM22,62.412929292851004,0.7684743509926293,0.016666666666666666,0.008333333333333333,0.0,0.016666666666666666,472.14273504276053,344.70000000298023,137.97999999225144,214.6000000089407,0.08547008547008547,0.9574468085106383,0.9583333333333334,0.0008865248226950229,110,1031.286956520832,985.7000000029802,761.8086956525626,716.6000000089407,0.9583333333333334,0.9583333333333334,0.9583333333333334,0.0,0.0,0.8437366382392089,937.1363636377183,833.4000000059605,843.2636363641782,642.1499999985099,1.0,0.9565217391304348,0.9565217391304348,0.0,0.041666666666666664,0.9601044607808129,677.2636363641782,565.4500000029802,766.772727274082,619.8999999985099,1.0,0.9565217391304348,0.9565217391304348,0.041666666666666664,0.0,0.9343996533956488,723.1761904756228,509.1999999880791,871.4285714257331,676.8999999910593,1.0,0.9130434782608695,0.9130434782608695,0.0,0.041666666666666664,0.9141673685792592,483.8272727274082,498.8000000119209,739.2181818187237,636.25,0.9583333333333334,0.9583333333333334,0.9166666666666666,0.0,0.0,0.1970018798868714,115.33333333416113,-26.799999999917304,142.13333333407843,-26.799999999917304,120.0690476199818,-26.799999999917304,146.8690476198991,-26.799999999917304,-0.02777777777777779,0.0,108,0.008196307014044488,5.200732317295042,454.26875701413144,0.0,0.0,0.0,0.006736087791700963,5.27806075489351,512.7760505511201,0.0,0.0,0.0,0.007453960731818929,5.71867766735757,362.97228783478005,0.0,0.0,0.0,,,,,-0.0014602192223435251,0.07732843759846819,58.50729353698864,77,9,0.11688311688311688,7,9.090909090909092,2,23,29.87012987012987,0.7777777777777778,0.2222222222222222,10.0,6.0,12.833333333333334,2.034425935955617,10.0,11.0,12.0,14.0,14.0,16.0,6.0,77.0,68.0,0.0,64.0,83.11688311688312,,-14.62842712842712,-3.666666666666666,3.0,2.0,1.0,"[100.0, 90.9090909090909, 83.33333333333334, 71.42857142857143, 71.42857142857143, 87.5]"
1Vb7DcXYw9R86bw5qj9eBk9fPqA2,-285.5139130417276,0.44849818848788453,0.0,0.0,0.0,0.0,279.1750000012379,179.45000000303844,104.08999999463558,129.475000001461,0.08333333333333333,0.9375,1.0,0.0625,114,1072.6000000031097,1036.300000011921,972.3130434764469,924.399999976158,1.0,0.9583333333333334,0.9583333333333334,0.0,0.0,0.9425260325035689,930.3409090881997,870.6000000089407,904.7045454504815,907.0,1.0,0.9166666666666666,0.9166666666666666,0.0,0.0,0.8365588045887871,920.1086956508782,853.5,1015.9521739120069,912.7999999821186,1.0,0.9583333333333334,0.9583333333333334,0.0,0.0,0.9008143120256833,684.9217391273249,642.5,1045.0173913020155,1034.2000000178814,1.0,0.9583333333333334,0.9583333333333334,0.0,0.0,0.6335567412718581,561.5739130442557,536.5,1224.7739130388136,1075.899999976158,0.9583333333333334,1.0,0.9583333333333334,0.0,0.0,0.8635152293559794,125.64722222586465,139.79166667080585,-14.1444444449412,139.79166667080585,134.45428571838215,139.79166667080585,-5.3373809524237,139.79166667080585,-0.02777777777777779,0.0,108,0.0063321978895470275,6.731754047165841,569.0157022454495,0.0,0.0,0.0,0.004936106401717923,7.2027378912497495,531.1903522697907,0.0,0.0,0.0,0.005216975670421282,8.170787341810813,464.2481672371986,0.0,0.0,0.0,,,,,-0.0013960914878291047,0.4709838440839089,-37.82534997565881,69,9,0.13043478260869565,6,8.695652173913043,3,15,21.73913043478261,0.6666666666666666,0.3333333333333333,11.0,6.0,11.5,0.7637626158259734,11.0,11.0,11.0,13.0,12.0,11.0,6.0,69.0,60.0,0.0,60.0,86.95652173913044,,-7.187257187257188,-1.0,4.0,3.0,1.0,"[90.9090909090909, 90.9090909090909, 90.9090909090909, 76.92307692307693, 83.33333333333334, 90.9090909090909]"
1dpmVw8fpcc2IHs0s9WqdU8Yvi53,-94.05208332588268,0.6508898157754288,0.0,0.0,0.0,0.0,276.68833333551885,215.5999999642372,114.4599999666214,167.05000001192093,0.05,1.0,1.0,0.0,120,1627.2166666686535,1599.550000011921,1485.2500000248353,1374.9500000476835,1.0,1.0,1.0,0.0,0.0,0.969490097386053,1719.2875000039737,1689.8500000238419,1674.3041666646798,1649.75,1.0,1.0,1.0,0.0,0.0,0.9603294052316627,1580.054166674614,1629.25,1646.0083333452542,1716.0,1.0,1.0,1.0,0.0,0.0,0.8344443356420261,1229.499999995033,1111.9500000476837,1582.8625000019867,1536.949999988079,1.0,1.0,1.0,0.0,0.0,0.9209690746134526,888.2750000059605,776.6999999880791,1673.8291666706402,1541.6500000357628,1.0,1.0,1.0,0.0,0.0,0.8490567846000739,240.625,18.6583333247238,221.9666666752762,18.6583333247238,232.23563492061612,18.6583333247238,213.57730159589232,18.6583333247238,-0.02777777777777779,0.0,108,0.00882273943928845,4.831469756501279,594.545194178671,0.0,0.0,0.0,0.005950743269637775,5.974628547041704,618.8652147576311,0.0,0.0,0.0,0.007804365270594466,5.461917438824115,539.1986760723166,0.0,0.0,0.0,,,,,-0.0028719961696506754,1.1431587905404257,24.32002057896011,72,10,0.1388888888888889,6,8.333333333333332,4,26,36.11111111111111,0.6,0.4,15.0,6.0,12.0,1.4142135623730951,15.0,11.0,11.0,11.0,12.0,12.0,6.0,72.0,62.0,0.0,60.0,83.33333333333334,,3.0303030303030454,0.6666666666666679,8.0,7.0,1.0,"[66.66666666666666, 90.9090909090909, 90.9090909090909, 90.9090909090909, 83.33333333333334, 83.33333333333334]"
1fbLQPCcysVlSKup96K4yI5NX6G3,-19.660869576792834,0.6572907653677449,0.0,0.0,0.0,0.0,611.7124999950271,539.1000000239001,327.23000004281056,391.4749999343476,0.0,0.9583333333333334,1.0,0.04166666666666663,114,1135.6869565093,1051.6999999284744,783.6913043571556,666.0,1.0,0.9583333333333334,0.9583333333333334,0.0,0.0,0.9481521246016592,1089.2782608840776,975.399999976158,702.8869565051535,577.5,1.0,0.9583333333333334,0.9583333333333334,0.0,0.0,0.8151136428807658,726.7699999928475,631.6999999880791,608.8150000154972,559.2499999403954,0.875,0.9583333333333334,0.8333333333333334,0.0,0.0,0.8674821643117844,724.3000000069538,637.4499999880791,681.8583333392938,599.0500000119209,1.0,1.0,1.0,0.0,0.0,0.8443992977618224,529.7249999940395,460.0,762.9500000079473,694.4499999880791,1.0,1.0,1.0,0.0,0.0,0.7139654104831598,56.30833333068426,-37.794444458352245,94.10277778903651,-37.794444458352245,42.602063491041804,-51.500714297994705,94.10277778903651,-51.500714297994705,0.02777777777777779,0.02777777777777779,108,0.005866365975002626,6.0605630072164445,442.87130095645796,0.0,0.0,0.0,0.0064045579262149745,6.655697280203254,468.15498719696916,0.0,0.0,0.0,0.007464698840446174,5.710451242781195,507.3528243231405,0.0,0.0,0.0,,,,,0.0005381919512123488,0.5951342729868099,25.2836862405112,91,22,0.24175824175824176,17,18.681318681318682,5,37,40.65934065934066,0.7727272727272727,0.22727272727272727,12.0,6.0,15.166666666666666,3.2871804872193366,12.0,18.0,21.0,14.0,14.0,12.0,6.0,91.0,69.0,0.0,65.0,71.42857142857143,,5.291005291005291,3.666666666666666,5.0,4.0,1.0,"[83.33333333333334, 55.55555555555556, 71.42857142857143, 71.42857142857143, 71.42857142857143, 83.33333333333334]"
1tT7dcLvf0bMGBdBWWYd8YkdJwr1,-269.2684264907432,0.6343053701694559,0.058333333333333334,0.0,0.025,0.075,324.92568807643966,204.30000007199124,119.77999999527819,156.70000004768372,0.06422018348623854,1.0,1.0,0.0,109,1584.6181818301027,1474.8000000119207,1373.7227272770622,1296.8500000834465,1.0,1.0,1.0,0.041666666666666664,0.041666666666666664,0.818033236370277,1462.8899999976159,1410.8500000238419,1377.8500000059605,1346.6000000238419,1.0,1.0,1.0,0.041666666666666664,0.125,0.8666208974980548,1716.4782608695652,1613.7999999523165,1725.6434782484303,1615.7999999523165,1.0,1.0,1.0,0.0,0.041666666666666664,0.8880282649971624,1202.2523809387571,1007.100000023842,1481.0190476292655,1422.6999999284744,1.0,1.0,1.0,0.041666666666666664,0.08333333333333333,0.9007646905601134,864.7173913043479,713.9000000953674,1644.9565217339475,1515.9000000953674,1.0,1.0,1.0,0.041666666666666664,0.0,0.8042463027320412,-89.48055555423093,-153.86388888955116,64.38333333532023,-153.86388888955116,-81.85087301267515,-148.2023015861473,66.35142857347216,-148.2023015861473,-0.02777777777777779,-0.02777777777777779,108,0.0055759760210916985,7.644724189841022,320.2557874908674,0.0,0.0,0.0,0.00578822506407474,6.142380474380784,403.7531992270239,0.0,0.0,0.0,0.005734277195176242,6.200167763916654,327.92846707331057,0.0,0.0,0.0,,,,,0.00021224904298304103,-1.5023437154602384,83.4974117361565,88,10,0.11363636363636363,7,7.954545454545454,3,29,32.95454545454545,0.7,0.3,11.0,6.0,14.666666666666666,5.676462121975467,11.0,15.0,12.0,12.0,11.0,27.0,6.0,88.0,78.0,1.0,71.0,80.68181818181817,,3.7037037037037095,-4.000000000000002,4.0,3.0,1.0,"[90.9090909090909, 66.66666666666666, 83.33333333333334, 83.33333333333334, 90.9090909090909, 77.77777777777779]"
1upUBO9zBnhHcpJ1WoAnaBXWKRV2,-145.80864661506246,0.6772215325417482,0.0,0.0,0.0,0.0,456.70583333571653,320.09999999403954,151.25999997854234,198.4249999821186,0.0,0.8333333333333334,0.9166666666666666,0.08333333333333326,102,915.1999999943532,864.6999999880791,749.2631578947369,703.6000000238419,0.9166666666666666,0.875,0.7916666666666666,0.0,0.0,0.9436539910409812,798.1473684248172,749.0,681.2052631472286,685.7999999523163,0.9583333333333334,0.7916666666666666,0.7916666666666666,0.0,0.0,0.6999542012759637,744.7043478229772,671.6999999880791,791.8782608716384,714.2999999523163,1.0,0.9583333333333334,0.9583333333333334,0.0,0.0,0.85956224253177,592.5199999988079,466.7000000178814,742.225,628.2999999821186,1.0,0.8333333333333334,0.8333333333333334,0.0,0.0,0.8616084021821427,545.8333333333334,475.0999999642372,861.0428571360452,731.6999999880791,0.9166666666666666,0.9166666666666666,0.875,0.0,0.0,0.8100621988832146,131.56944444278872,52.677777775459845,78.89166666732888,52.677777775459845,143.03039682337214,52.677777775459845,90.3526190479123,52.677777775459845,-0.02777777777777779,0.0,108,0.006766481347735694,6.299699441967374,417.78687906367173,0.0,0.0,0.0,0.00579411736292187,6.136134011093823,513.2976088463598,0.0,0.0,0.0,0.006830982413896739,6.240214977525715,478.9711578424307,0.0,0.0,0.0,,,,,-0.0009723639848138238,-0.16356543087355124,95.51072978268809,128,65,0.5078125,62,48.4375,3,90,70.3125,0.9538461538461539,0.046153846153846156,16.0,4.0,32.0,30.63494736408078,16.0,85.0,15.0,12.0,,,3.0,128.0,63.0,0.0,46.0,35.9375,,0.0,0.0,3.0,2.0,1.0,"[87.5, 15.294117647058824, 66.66666666666666]"
23hG7h2ByUZDbmOMTDtp0HT0xRb2,-232.9021645335406,0.5293329163872202,0.0,0.016666666666666666,0.008333333333333333,0.0,432.73451326589463,277.40000009536743,176.6799997329712,199.60000038170256,0.0,0.9555555555555556,1.0,0.0444444444444444,105,1537.590476172311,1383.4000000953674,1219.5285714921497,1186.5999999046326,1.0,0.9130434782608695,0.9130434782608695,0.041666666666666664,0.0,0.8711010686531074,1414.0190475554693,1219.7999997138977,1152.2761904625665,983.0999999046326,0.9545454545454546,1.0,0.9545454545454546,0.08333333333333333,0.0,0.8183787305722009,1143.1499999761581,959.7999999523163,1143.410000014305,1048.7000000476837,0.9545454545454546,0.9545454545454546,0.9090909090909091,0.08333333333333333,0.0,0.8447242960966787,1069.1333333651226,838.2000002861023,1342.6238095419747,1182.7000002861023,0.9545454545454546,1.0,0.9545454545454546,0.08333333333333333,0.0,0.8106835837916613,903.5727272900668,648.1499998569489,1418.8045455108988,1577.0,0.9583333333333334,1.0,0.9583333333333334,0.0,0.0,-0.05453890662749856,373.92222221692396,73.56134923337004,300.3608729835539,73.56134923337004,373.92222221692396,73.56134923337004,300.3608729835539,73.56134923337004,0.0,-0.02777777777777779,107,0.005668219126331486,7.520315961743982,344.19877075312,0.0,0.0,0.0,0.004588814729950476,9.289283023826338,379.0193230207542,0.0,0.0,0.0,0.005966842109285842,7.096059233757796,485.07348759866863,0.0,0.0,0.0,,,,,-0.0010794043963810096,1.7689670620823552,34.820552267634184,128,48,0.375,6,4.6875,42,19,14.84375,0.125,0.875,79.0,5.0,25.6,26.829834140374405,79.0,17.0,11.0,12.0,9.0,,4.0,128.0,80.0,1.0,62.0,48.4375,,0.0,0.0,4.0,3.0,1.0,"[27.848101265822784, 82.35294117647058, 90.9090909090909, 83.33333333333334]"
28nQWMwCaSNFBEXlicY3eHqpwKU2,181.20454543828964,0.7760390479066944,0.0,0.0,0.0,0.0,658.2508333226045,591.1999999284744,291.52000012397764,411.57500010728836,0.0,0.9583333333333334,0.9166666666666666,-0.04166666666666674,112,1417.0904761950176,1484.1000001430511,988.1714285895938,864.9000000953674,0.9583333333333334,0.9166666666666666,0.875,0.0,0.0,0.9014766918268368,1174.2173912732499,1161.4000000953674,875.6695652111717,807.3999998569489,0.9583333333333334,1.0,0.9583333333333334,0.0,0.0,0.7787237596006926,1125.0826087101645,1041.9000000953674,870.843478265016,769.4000000953674,1.0,0.9583333333333334,0.9583333333333334,0.0,0.0,0.7518088980844401,708.8695651759272,638.5999999046326,687.1260869606682,661.5,1.0,0.9583333333333334,0.9583333333333334,0.0,0.0,0.6498897787142828,625.7590909112583,588.8500000238419,748.1590909307653,715.6499999761581,1.0,0.9166666666666666,0.9166666666666666,0.0,0.0,0.46849361499639247,113.27500002251713,-2.344444453716278,115.61944447623341,-2.344444453716278,113.27500002251713,-2.344444453716278,115.61944447623341,-2.344444453716278,0.0,0.0,108,0.008012338486883668,5.320144529614417,722.6918147612294,0.0,0.0,0.0,0.006082631332033586,7.007953703510405,598.6807365690757,0.0,0.0,0.0,0.007004808101089987,6.085362818687386,620.8176510414792,0.0,0.0,0.0,,,,,-0.0019297071548500817,1.687809173895988,-124.0110781921536,88,15,0.17045454545454544,10,11.363636363636363,5,31,35.22727272727273,0.6666666666666666,0.3333333333333333,18.0,6.0,14.666666666666666,4.422166387140534,18.0,23.0,11.0,11.0,12.0,13.0,6.0,88.0,73.0,1.0,69.0,78.4090909090909,,4.948594079028879,5.333333333333332,3.0,2.0,1.0,"[88.88888888888889, 56.52173913043478, 90.9090909090909, 90.9090909090909, 83.33333333333334, 76.92307692307693]"
2FHuv7L9nWPdbIiWHRIuXtcoyw83,-185.64114832536347,0.5496367768143936,0.0,0.0,0.0,0.0,281.8214285714078,175.5,85.4,119.5,0.16071428571428573,0.9302325581395349,1.0,0.06976744186046513,101,1201.199999999965,1095.5,1051.1500000000117,966.5,1.0,0.9523809523809523,0.9523809523809523,0.125,0.0,0.9394790504152942,1144.1111111110981,1020.5,1135.5555555555557,1047.5,0.9090909090909091,0.9090909090909091,0.8181818181818182,0.08333333333333333,0.0,0.9820956683076772,940.1428571428904,837.0,1033.4761904762238,989.0,0.9166666666666666,0.9166666666666666,0.875,0.0,0.0,0.8088135435865899,594.2000000000116,527.5,982.85,942.9999999998836,0.9565217391304348,0.9130434782608695,0.8695652173913043,0.041666666666666664,0.0,0.9250088567823276,656.5454545454334,556.0000000001164,1276.772727272738,1101.5000000001164,1.0,1.0,1.0,0.08333333333333333,0.0,0.33961818729663346,288.0328282828393,184.81031746031772,103.2225108225216,184.81031746031772,281.219534050191,184.81031746031772,96.40921658987327,184.81031746031772,-0.13888888888888884,-0.02777777777777779,104,0.006790822553649271,6.27711863086546,647.0227447910419,0.0,0.0,0.0,0.004704458446801308,5.8260478967324625,833.4308422900268,0.0,0.0,0.0,0.005475499479342953,7.732822403820859,595.2171472137103,0.0,0.0,0.0,,,,,-0.002086364106847963,-0.4510707341329976,186.40809749898494,71,9,0.1267605633802817,8,11.267605633802818,1,25,35.2112676056338,0.8888888888888888,0.1111111111111111,11.0,6.0,11.833333333333334,1.2133516482134197,11.0,13.0,11.0,14.0,11.0,11.0,6.0,71.0,62.0,0.0,60.0,84.50704225352112,,-1.8315018315018528,-0.3333333333333339,4.0,3.0,1.0,"[90.9090909090909, 76.92307692307693, 90.9090909090909, 71.42857142857143, 90.9090909090909, 90.9090909090909]"
2h5FgHUEvBS1twD5DqbTIRrMm1f2,127.85000000051821,0.834884057068692,0.0,0.008333333333333333,0.0,0.0,447.90588235254637,312.10000002384186,206.9399999976158,239.80000001192093,0.0,0.9787234042553191,0.9583333333333334,-0.020390070921985748,116,1152.3272727348588,1158.5000000298023,931.2727272727273,868.2000000178814,1.0,0.9565217391304348,0.9565217391304348,0.041666666666666664,0.0,0.9084943982077472,1022.7958333368102,990.0,888.8375000059605,835.25,1.0,1.0,1.0,0.0,0.0,0.9235533395803922,835.1043478224589,693.1999999880791,822.1652173892311,707.0999999642372,1.0,0.9583333333333334,0.9583333333333334,0.0,0.0,0.9770539451271852,867.5749999930462,749.5999999940395,1081.0166666805744,952.2500000298023,1.0,1.0,1.0,0.0,0.0,0.9446869819769088,518.3347826029943,433.3000000119209,781.2826086982437,702.8000000119209,1.0,0.9583333333333334,0.9583333333333334,0.0,0.0,0.7727937944817407,138.85833332770403,11.552777782082558,127.30555554562147,11.552777782082558,144.23261904314393,11.552777782082558,132.67984126106137,11.552777782082558,-0.02777777777777779,0.0,108,0.007527506210686577,5.662804862239396,354.34919341529195,0.0,0.0,0.0,0.005472847040077528,6.496341000312424,303.7403330842187,0.0,0.0,0.0,0.006985874397979035,6.101855879737093,306.9976405885873,0.0,0.0,0.0,,,,,-0.002054659170609049,0.8335361380730282,-50.60886033107323,99,22,0.2222222222222222,13,13.131313131313133,9,36,36.36363636363637,0.5909090909090909,0.4090909090909091,12.0,6.0,16.5,5.057996968497839,12.0,18.0,14.0,13.0,15.0,27.0,6.0,99.0,77.0,0.0,69.0,69.6969696969697,,1.2142178808845472,-3.666666666666666,5.0,4.0,1.0,"[83.33333333333334, 55.55555555555556, 71.42857142857143, 76.92307692307693, 66.66666666666666, 70.37037037037037]"
2zDXvJKvjeejeOSNbtDbtSI5cdz1,112.74846014461605,0.7365037738784446,0.0,0.0,0.0,0.0,361.17583333319055,274.0,147.70999999996275,200.9250000002794,0.008333333333333333,1.0,0.9583333333333334,-0.04166666666666663,119,1440.2791666664805,1471.3499999996275,1271.9916666665424,1307.5999999996277,1.0,1.0,1.0,0.0,0.0,0.9581167469292935,1356.7291666666667,1317.5999999996277,1262.479166666589,1265.6499999994412,1.0,1.0,1.0,0.0,0.0,0.9488561326014815,1183.7791666667133,1066.750000000931,1264.3083333335817,1225.4000000003725,1.0,1.0,1.0,0.0,0.0,0.9671963525246016,865.2958333330849,729.2999999988824,1135.954166666682,1066.1499999994412,1.0,1.0,1.0,0.0,0.0,0.916519886602048,689.7826086955712,664.2999999988824,1154.4869565219497,1119.5,1.0,0.9583333333333334,0.9583333333333334,0.0,0.0,0.589073385368972,145.47500000009313,-6.530555555493493,152.00555555558662,-6.530555555493493,145.47500000009313,-6.530555555493493,152.00555555558662,-6.530555555493493,0.0,0.0,108,0.009039404108523696,4.715664689691028,459.91451515549625,0.0,0.0,0.0,0.007673565550523573,5.555018522973944,507.0796180831852,0.0,0.0,0.0,0.008981144151566747,4.746254825781525,450.08320309556444,0.0,0.0,0.0,,,,,-0.001365838558000123,0.8393538332829156,47.16510292768896,71,9,0.1267605633802817,5,7.042253521126761,4,19,26.76056338028169,0.5555555555555556,0.4444444444444444,12.0,6.0,11.833333333333334,0.6871842709362768,12.0,12.0,11.0,11.0,12.0,13.0,6.0,71.0,62.0,0.0,60.0,84.50704225352112,,-2.1367521367521363,-0.3333333333333339,5.0,4.0,1.0,"[83.33333333333334, 83.33333333333334, 90.9090909090909, 90.9090909090909, 83.33333333333334, 76.92307692307693]"
3FSnTCSiUodLp5u3bE0xaUjLk0b2,67.263232323294,0.6842568988933079,0.03333333333333333,0.0,0.0,0.03333333333333333,361.4284482758617,256.85000000009313,34.30000000016298,91.07499999998254,0.3103448275862069,0.9782608695652174,0.9565217391304348,-0.021739130434782594,112,1210.2863636363975,1221.2000000001865,1081.9772727272198,1169.3000000000466,1.0,1.0,1.0,0.0,0.08333333333333333,0.9065801817965817,1087.36521739128,1053.5,1014.1652173913266,1000.1000000000932,1.0,0.9583333333333334,0.9583333333333334,0.0,0.0,0.7878101763371649,900.7772727272558,815.2999999999302,919.8999999999597,993.3999999999069,0.9565217391304348,1.0,0.9565217391304348,0.0,0.041666666666666664,0.9057546797734479,769.1565217391143,588.1000000000931,1106.208695652176,1002.2999999998136,0.9583333333333334,1.0,0.9583333333333334,0.0,0.0,0.9439619755875198,509.03181818178433,476.9000000000233,980.0545454544692,734.2000000000698,1.0,0.9565217391304348,0.9565217391304348,0.0,0.041666666666666664,0.6372897407463305,55.81666666668343,39.611111111124046,16.205555555559386,39.611111111124046,55.81666666668343,39.611111111124046,16.205555555559386,39.611111111124046,0.0,0.0,108,0.008491503933391764,5.019935114531209,535.5638543399925,0.0,0.0,0.0,0.007747648879293457,5.501901213455679,533.5494996584569,0.0,0.0,0.0,0.00754409503844391,5.65035283267132,498.4640122622037,0.0,0.0,0.0,,,,,-0.0007438550540983073,0.4819660989244703,-2.0143546815356785,84,13,0.15476190476190477,8,9.523809523809524,5,28,33.33333333333333,0.6153846153846154,0.38461538461538464,12.0,6.0,14.0,3.605551275463989,12.0,11.0,12.0,20.0,18.0,11.0,6.0,84.0,71.0,1.0,67.0,79.76190476190477,,-8.703703703703724,-4.666666666666666,5.0,4.0,1.0,"[83.33333333333334, 90.9090909090909, 83.33333333333334, 85.0, 55.55555555555556, 90.9090909090909]"
3WijiOiVCoMbn80F05SPYsxl0TC2,-147.43235814349453,0.13878966248401498,0.0,0.0,0.0,0.0,489.6141666640867,382.55000001197914,239.0499999045278,304.7249999641499,0.008333333333333333,0.9791666666666666,1.0,0.02083333333333337,119,1117.678260870602,1105.1999999284744,813.4826086915058,772.1000000238419,1.0,0.9583333333333334,0.9583333333333334,0.0,0.0,0.8528538399878156,1037.9000000059605,966.1499999761581,785.6041666815678,718.1000000238419,1.0,1.0,1.0,0.0,0.0,0.5570402868822558,870.1208333273729,807.9499999880791,804.6458333283663,790.3000000119209,1.0,1.0,1.0,0.0,0.0,0.5216709582466245,699.1041666766008,665.3000000119209,934.8958333383003,956.9000000357628,1.0,1.0,1.0,0.0,0.0,0.7154708942537908,564.0999999940395,530.9000000357628,946.6791666597128,937.4499999880791,1.0,1.0,1.0,0.0,0.0,-0.13810325490190437,43.75833333532012,-8.922222220235426,52.68055555555554,-8.922222220235426,43.75833333532012,-8.922222220235426,52.68055555555554,-8.922222220235426,0.0,0.0,108,0.008372611726143475,5.091218865113623,534.9388234722107,0.0,0.0,0.0,0.007559727495144843,5.638668695107042,511.7098796477146,0.0,0.0,0.0,0.00867971082290833,4.911085131765962,546.5635779763516,0.0,0.0,0.0,,,,,-0.0008128842309986324,0.5474498299934192,-23.228943824496127,80,16,0.2,9,11.25,7,19,23.75,0.5625,0.4375,14.0,6.0,13.333333333333334,1.3743685418725535,14.0,12.0,13.0,13.0,16.0,12.0,6.0,80.0,64.0,0.0,60.0,75.0,,-2.9761904761904674,-0.6666666666666661,7.0,6.0,1.0,"[71.42857142857143, 83.33333333333334, 76.92307692307693, 76.92307692307693, 62.5, 83.33333333333334]"
3rlzYufVjVVLv3ZFLcpfZUtXEEi1,-297.3854544141076,0.165452324677712,0.016666666666666666,0.0,0.0,0.016666666666666666,279.08305086523995,249.15000009536743,23.57000026702881,40.32499980926514,0.4067796610169492,0.9148936170212766,1.0,0.08510638297872342,109,1013.3545454198664,1049.550000190735,833.8681818355213,835.2999997138977,0.9583333333333334,0.9583333333333334,0.9166666666666666,0.0,0.0,0.7756054069915354,887.1222222646078,900.5500001907349,869.0722223387825,809.4999995231628,0.8260869565217391,0.8695652173913043,0.782608695652174,0.0,0.041666666666666664,0.6240721235027255,776.741666674614,731.0,892.5624999602636,802.3499999046326,1.0,1.0,1.0,0.0,0.0,0.8055651081394122,585.5043478841367,481.0,986.7173913043479,1001.8000001907347,1.0,0.9583333333333334,0.9583333333333334,0.0,0.0,0.8098945934106141,524.318181774833,505.4500002861023,1147.0954544760964,930.1499996185303,0.9565217391304348,1.0,0.9565217391304348,0.0,0.041666666666666664,-0.2580859441087493,122.32777775658496,97.98888897895813,24.338888777626835,97.98888897895813,104.95040560639177,84.6411765603458,20.30922904604597,84.6411765603458,-0.13888888888888884,0.0,108,0.007778108855718881,3.6425478179995983,399.6956231651408,0.0,0.0,0.0,0.003647662186533616,3.8967031710847873,386.36566144115625,0.0,0.0,0.0,0.007068576424343069,4.008180960311999,440.4547844306146,0.0,0.0,0.0,,,,,-0.004130446669185265,0.254155353085189,-13.329961723984525,128,34,0.265625,21,16.40625,13,39,30.46875,0.6176470588235294,0.38235294117647056,46.0,5.0,25.6,10.781465577554844,46.0,20.0,21.0,26.0,15.0,,4.0,128.0,94.0,3.0,78.0,60.9375,,0.0,0.0,3.0,2.0,1.0,"[58.69565217391305, 80.0, 71.42857142857143, 38.46153846153847]"
3xCaqfcHxRQxuOlEzXz3PNcHODH2,-44.759601450457694,0.7312311601866646,0.008333333333333333,0.0,0.0,0.008333333333333333,243.75126050425177,98.79999999696156,38.78000000418397,51.29999999701977,0.5042016806722689,1.0,1.0,0.0,118,941.7333333330849,805.3500000014901,910.0166666662941,836.3999999985099,1.0,1.0,1.0,0.0,0.0,0.9761236538111271,863.4090909090909,819.0,947.450000000271,931.9000000059605,0.9565217391304348,1.0,0.9565217391304348,0.0,0.041666666666666664,0.9682454701517644,676.6833333342025,575.5,870.8791666657975,773.4499999955297,1.0,1.0,1.0,0.0,0.0,0.8967837845611694,645.0374999996275,512.3499999940395,1100.137499999255,1022.8000000044703,1.0,1.0,1.0,0.0,0.0,0.9562276055013662,407.15833333383006,383.8999999985099,972.6791666677842,959.2000000029802,1.0,1.0,1.0,0.0,0.0,0.4242215987165654,68.65555555414824,92.06944444444446,-23.41388889029622,92.06944444444446,70.2428571410477,104.70000000013147,-34.457142859083774,104.70000000013147,-0.02777777777777779,-0.05555555555555558,108,0.008701484251677782,4.8987962900920135,383.5272289171888,0.0,0.0,0.0,0.006875073652292703,5.171359961072962,372.24213984841884,0.0,0.0,0.0,0.005478128065550663,5.1718640202534605,342.3029763959042,0.0,0.0,0.0,,,,,-0.0018264105993850786,0.2725636709809489,-11.285089068769935,69,5,0.07246376811594203,3,4.3478260869565215,2,12,17.391304347826086,0.6,0.4,12.0,6.0,11.5,2.140872096444188,12.0,16.0,10.0,10.0,11.0,10.0,6.0,69.0,64.0,0.0,63.0,91.30434782608695,,8.775252525252498,2.333333333333332,5.0,4.0,1.0,"[83.33333333333334, 81.25, 100.0, 100.0, 90.9090909090909, 100.0]"
4ySuGdFDDmaAr6JUXbD4UIY6BQ13,226.39347826087032,0.7888844267330716,0.0,0.0,0.0,0.0,383.73416666666355,280.79999999993015,127.05999999993946,153.4999999999709,0.008333333333333333,0.9791666666666666,0.9166666666666666,-0.0625,111,1217.3958333333333,1188.5,1065.8708333333295,1068.0999999999767,1.0,1.0,1.0,0.0,0.0,0.944903937765725,1347.4363636363362,1334.4499999999534,1269.363636363647,1284.9999999998836,0.9583333333333334,0.9583333333333334,0.9166666666666666,0.0,0.0,0.9597084527787136,1068.5043478261011,991.9000000001396,1089.2739130435107,1018.0999999998604,1.0,0.9583333333333334,0.9583333333333334,0.0,0.0,0.8600449972331686,866.280952380948,646.6999999999534,1150.423809523816,992.8000000000466,1.0,0.875,0.875,0.0,0.0,0.9106524370789324,493.50952380952157,498.2000000001863,936.8000000000022,915.5,0.9583333333333334,0.9166666666666666,0.875,0.0,0.0,0.04915077872755318,178.52222222223645,-58.23611111111438,236.75833333335083,-58.23611111111438,178.52222222223645,-58.23611111111438,236.75833333335083,-58.23611111111438,0.0,0.0,108,0.008419085097335535,5.063115324003993,495.2570703672146,0.0,0.0,0.0,0.006955445247176247,6.128550690226296,537.7994045827166,0.0,0.0,0.0,0.0077733664888716865,5.483698579172552,386.4354542369337,0.0,0.0,0.0,,,,,-0.0014636398501592885,1.065435366222303,42.542334215502024,82,9,0.10975609756097561,7,8.536585365853659,2,22,26.82926829268293,0.7777777777777778,0.2222222222222222,11.0,6.0,13.666666666666666,4.307615994440028,11.0,11.0,14.0,12.0,11.0,23.0,6.0,82.0,73.0,0.0,69.0,84.14634146341463,,1.2014555492816186,-3.333333333333334,4.0,3.0,1.0,"[90.9090909090909, 90.9090909090909, 71.42857142857143, 83.33333333333334, 90.9090909090909, 82.6086956521739]"
50R0P1MIMvRvK1qpqfGROchII6R2,-430.9130435093589,0.5995225717516889,0.016666666666666666,0.0,0.0,0.016666666666666666,318.9432203163545,227.84999990463257,136.5699998855591,177.44999969005585,0.09322033898305085,1.0,1.0,0.0,113,1124.5863636623728,947.1000001430511,996.9863636493683,856.7999999523163,0.9166666666666666,1.0,0.9166666666666666,0.0,0.0,0.9798754624925815,992.8166666825613,876.2500002384186,901.3958333730698,769.0499999523163,1.0,1.0,1.0,0.0,0.0,0.8833860862139178,794.8499999761582,718.1000001430511,865.8650000095367,790.8999998569489,1.0,0.8695652173913043,0.8695652173913043,0.0,0.041666666666666664,0.9351180579387159,688.6374999483427,580.2999999523163,985.4500000278155,909.1500000953674,1.0,1.0,1.0,0.0,0.0,0.882867250928294,665.0739130766495,590.2000002861023,1378.0260870145714,1477.3000001907349,1.0,1.0,1.0,0.0,0.041666666666666664,0.8143983281424003,118.84722216924024,30.59444440735706,88.25277776188318,30.59444440735706,97.42352934756309,30.59444440735706,66.82908494020603,30.59444440735706,-0.05555555555555558,0.0,108,0.008682669188883675,4.909411822920516,494.3898638177615,0.0,0.0,0.0,0.00532433599748956,5.321251974691463,422.48652115092386,0.0,0.0,0.0,0.0073884211328562295,5.769405669210203,420.25425193075876,0.0,0.0,0.0,,,,,-0.0033583331913941148,0.4118401517709467,-71.90334266683766,128,54,0.421875,38,29.6875,16,60,46.875,0.7037037037037037,0.2962962962962963,16.0,5.0,25.6,16.37803407005859,16.0,53.0,24.0,31.0,4.0,,4.0,128.0,74.0,0.0,53.0,41.40625,,0.0,0.0,5.0,4.0,1.0,"[81.25, 24.528301886792452, 58.333333333333336, 41.935483870967744]"
5OOi73igsahMZ5IVKQwwyhnj4Cn2,-2.964583333368182,0.7533021171909473,0.0,0.0,0.0,0.0,299.58333333331007,107.69999999995343,59.56999999992549,78.44999999995343,0.44166666666666665,1.0,1.0,0.0,120,985.3583333332984,855.8000000000466,959.0999999999962,860.0500000000466,1.0,1.0,1.0,0.0,0.0,0.9924259292160665,888.9458333333217,777.6500000001397,966.9958333332519,873.4499999999534,1.0,1.0,1.0,0.0,0.0,0.9772723593349196,1008.3124999999806,901.5,1096.816666666593,1040.0,1.0,1.0,1.0,0.0,0.0,0.8628353296203671,695.1083333333178,584.0,1077.8375000000233,1030.4499999999534,1.0,1.0,1.0,0.0,0.0,0.9212140590101084,602.5541666666201,492.64999999990687,966.0124999999922,773.3000000000466,1.0,1.0,1.0,0.0,0.0,0.773006447764125,143.76111111117314,0.17777777778815107,143.58333333338499,0.17777777778815107,149.40865079371247,0.17777777778815107,149.23087301592432,0.17777777778815107,-0.02777777777777779,0.0,108,0.010193446651133321,4.181784653346265,585.0793586107802,0.0,0.0,0.0,0.007349032797160321,4.837844869685718,623.0490446109775,0.0,0.0,0.0,0.008570805614217135,4.973487988072493,502.5988142582068,0.0,0.0,0.0,,,,,-0.0028444138539729996,0.6560602163394531,37.96968600019727,70,7,0.1,3,4.285714285714286,4,20,28.57142857142857,0.42857142857142855,0.5714285714285714,11.0,6.0,11.666666666666666,2.4267032964268394,11.0,11.0,10.0,17.0,11.0,10.0,6.0,70.0,63.0,0.0,60.0,85.71428571428571,,-10.695187165775394,-2.0,4.0,3.0,1.0,"[90.9090909090909, 90.9090909090909, 100.0, 58.82352941176471, 90.9090909090909, 100.0]"
5Z68AKm9rIeeB2lVu3nJO7U31wk1,158.74999999978843,0.6577567346802116,0.0,0.0,0.0,0.0,505.4924999999998,405.55000000080327,122.39999999982538,259.7000000011176,0.05,0.9375,0.9583333333333334,0.02083333333333337,112,1052.6454545454208,1044.9500000001863,769.3318181816827,751.4499999992549,0.9583333333333334,0.9583333333333334,0.9166666666666666,0.0,0.0,0.5755936134715979,971.177272726951,820.7499999990687,790.9045454545624,662.1499999994412,1.0,0.9166666666666666,0.9166666666666666,0.0,0.0,0.8165034064034759,809.0217391300299,707.1999999992549,745.4304347827059,657.5,1.0,0.9583333333333334,0.9583333333333334,0.0,0.0,0.8241593738205757,508.8086956524007,450.0999999996274,711.6695652172456,636.7000000011176,0.9583333333333334,1.0,0.9583333333333334,0.0,0.0,0.7524054471435562,395.36363636346704,369.89999999944115,621.3681818183342,569.3999999994412,0.9583333333333334,0.9583333333333334,0.9166666666666666,0.0,0.0,0.2770055270776099,-2.761111111069681,27.449999999875786,-30.211111110945467,27.449999999875786,-4.142857142803905,26.01714285707908,-30.159999999882984,26.01714285707908,0.0,0.0,108,0.009327021915237054,3.811879176225836,392.5351302423424,0.0,0.0,0.0,0.008174314502745151,4.349414327397648,330.1242662022604,0.0,0.0,0.0,0.006905044294691171,5.14891419917883,259.421730513688,0.0,0.0,0.0,,,,,-0.0011527074124919028,0.537535151171812,-62.410864040082004,128,45,0.3515625,29,22.65625,16,48,37.5,0.6444444444444445,0.35555555555555557,27.0,4.0,32.0,6.819090848492928,27.0,24.0,36.0,41.0,,,3.0,128.0,83.0,4.0,66.0,51.5625,,0.0,0.0,5.0,4.0,1.0,"[85.18518518518519, 41.66666666666667, 63.888888888888886]"
5rXSa3anB5ejmFrnwUsTB82byup1,-343.13768939393015,0.5348772105614661,0.0,0.0,0.008333333333333333,0.0,331.27478991596206,223.59999999962747,125.35999999968335,164.9000000001397,0.05042016806722689,1.0,0.9565217391304348,-0.04347826086956519,118,1071.7958333333565,1007.6000000000931,932.3041666666977,904.9000000001397,1.0,1.0,1.0,0.0,0.0,0.9700033889458816,1073.3999999999844,1085.8999999999069,974.9749999999962,915.8500000000931,1.0,1.0,1.0,0.0,0.0,0.9441948973138801,1024.1583333333062,960.75,1061.2250000000156,985.5000000002328,1.0,1.0,1.0,0.0,0.0,0.9444123577413295,725.0333333333256,669.1500000001397,1060.9624999999262,1029.8499999998603,1.0,1.0,1.0,0.0,0.0,0.8871684592004679,714.4000000000339,665.2500000002328,1296.777272727277,1334.5,1.0,0.9565217391304348,0.9565217391304348,0.041666666666666664,0.0,0.4904356412842223,148.26944444450135,-95.5222222221912,243.79166666669255,-95.5222222221912,148.26944444450135,-95.5222222221912,243.79166666669255,-95.5222222221912,0.0,0.0,108,0.007222573845569053,5.901884796451633,445.6132045134693,0.0,0.0,0.0,0.006703630501971961,6.358763174353653,530.0023621340256,0.0,0.0,0.0,0.007203518142381207,5.9174972461889865,347.98662900210644,0.0,0.0,0.0,,,,,-0.0005189433435970918,0.4568783779020196,84.38915762055626,85,11,0.12941176470588237,7,8.235294117647058,4,28,32.94117647058823,0.6363636363636364,0.36363636363636365,13.0,6.0,14.166666666666666,3.2871804872193366,13.0,11.0,17.0,11.0,13.0,20.0,6.0,85.0,74.0,1.0,69.0,81.17647058823529,,-6.0784313725490335,-1.0,6.0,5.0,1.0,"[76.92307692307693, 90.9090909090909, 88.23529411764706, 90.9090909090909, 76.92307692307693, 70.0]"
5zxa5CMLGQSSonWOXqXf0QNS3PH3,-55.129444458749504,0.5951221919536832,0.0,0.0,0.0,0.0,434.3583333283614,324.10000002384186,151.8599999189377,199.77499997607083,0.025,1.0,1.0,0.0,116,1009.8095237924939,905.899999976158,829.3523809512457,802.0,0.875,1.0,0.875,0.0,0.0,0.8747456877342176,1027.37916666766,938.5500000119208,935.058333337307,857.0,1.0,1.0,1.0,0.0,0.0,0.9473060607408622,919.5260869731073,876.3999999761581,901.6347826200982,929.5,1.0,0.9583333333333334,0.9583333333333334,0.0,0.0,0.8821580938748078,644.5583333174387,602.8499999642372,873.4666666835546,867.2500000596046,1.0,1.0,1.0,0.0,0.0,0.8863375641745329,546.7375000019869,515.8999999761581,940.8583333492279,858.5500000119209,1.0,1.0,1.0,0.0,0.0,0.4380567157432333,129.66666667328934,62.886111100514654,66.78055557277469,62.886111100514654,128.31587302400953,61.535317451234846,66.78055557277469,61.535317451234846,0.02777777777777779,0.02777777777777779,108,0.01034104794094231,3.4380926205873865,419.8286477417173,0.0,0.0,0.0,0.00727431080587422,5.859908918930272,313.5517682996242,0.0,0.0,0.0,0.010733473652626932,3.971388960365187,458.50260978884256,0.0,0.0,0.0,,,,,-0.0030667371350680895,2.4218162983428857,-106.2768794420931,87,13,0.14942528735632185,7,8.045977011494253,6,26,29.88505747126437,0.5384615384615384,0.46153846153846156,14.0,6.0,14.5,3.304037933599835,14.0,11.0,12.0,12.0,19.0,19.0,6.0,87.0,74.0,0.0,67.0,77.01149425287356,,-6.744133059922547,-4.333333333333334,7.0,6.0,1.0,"[71.42857142857143, 90.9090909090909, 83.33333333333334, 83.33333333333334, 73.68421052631578, 68.42105263157895]"
62fAfeQc27bZelkPX7G54T3gvci2,181.2041666666628,0.7532883854810122,0.0,0.0,0.0,0.0,571.4,462.85000000009313,305.6099999999627,357.12499999976717,0.0,1.0,1.0,0.0,119,1497.3999999999844,1439.5,1206.7458333332713,1182.1500000003725,1.0,1.0,1.0,0.0,0.0,0.9698192573360258,1532.5458333333954,1423.7000000001865,1282.7208333333256,1168.899999999907,1.0,1.0,1.0,0.0,0.0,0.9244693996580947,1285.9434782608776,1144.0,1154.09130434781,1024.2999999998135,1.0,0.9583333333333334,0.9583333333333334,0.0,0.0,0.9161598934852653,1209.0874999999844,1157.8500000000931,1188.8500000000543,1221.7999999998137,1.0,1.0,1.0,0.0,0.0,0.6773586735022565,809.4541666665658,824.6499999999069,1063.5291666666355,994.3999999999069,1.0,1.0,1.0,0.0,0.0,0.6192605873436289,189.75063492074946,-32.39722222206183,222.1478571428113,-32.39722222206183,189.75063492074946,-23.115079364906364,212.86571428565583,-23.115079364906364,-0.02777777777777779,-0.02777777777777779,107,0.007370630135398281,5.783331680922802,586.4473321254618,0.0,0.0,0.0,0.005334868133969464,7.93666572119531,435.0273168375327,0.0,0.0,0.0,0.006444413821842701,5.516945621088011,540.4962755244655,0.0,0.0,0.0,,,,,-0.0020357620014288163,2.153334040272508,-151.42001528792912,70,8,0.11428571428571428,6,8.571428571428571,2,16,22.857142857142858,0.75,0.25,13.0,6.0,11.666666666666666,0.9428090415820634,13.0,11.0,11.0,11.0,13.0,11.0,6.0,70.0,62.0,0.0,60.0,85.71428571428571,,0.0,0.0,6.0,5.0,1.0,"[76.92307692307693, 90.9090909090909, 90.9090909090909, 90.9090909090909, 76.92307692307693, 90.9090909090909]"
6ABZuv4jbjgE0B8TeyUk6nwVb122,-32.81391844977725,0.611957642254063,0.0,0.0,0.0,0.0,641.0450000007967,563.2999999523163,443.02999992370604,498.27499973765225,0.0,1.0,1.0,0.0,118,1461.3416666587193,1409.5999999046326,963.7208333412806,918.5499999523163,1.0,1.0,1.0,0.0,0.0,0.8018473504121373,1402.921739122142,1467.2000002861023,1037.7173912836158,967.6999998092653,0.9583333333333334,1.0,0.9583333333333334,0.0,0.0,0.9094626567347847,1309.9541666706402,1277.6000001430511,1039.408333381017,944.3999998569489,1.0,1.0,1.0,0.0,0.0,0.9004064960417713,925.1521739130435,781.5999999046326,934.921739122142,782.5999999046326,0.9583333333333334,1.0,0.9583333333333334,0.0,0.0,0.9363505810053899,706.5291666785876,633.7000000476837,1032.745833337307,979.7000000476837,1.0,1.0,1.0,0.0,0.0,0.6304112660807596,114.30833327770222,17.163888825310664,97.14444445239155,17.163888825310664,114.30833327770222,17.163888825310664,97.14444445239155,17.163888825310664,0.0,0.0,108,0.008303563237347945,5.13355502354525,708.3606699623282,0.0,0.0,0.0,0.006784473217917256,6.28299315234073,673.0202020655119,0.0,0.0,0.0,0.009922702504658924,4.2958859998472185,815.6010029161002,0.0,0.0,0.0,,,,,-0.0015190900194306887,1.14943812879548,-35.340467896816335,88,10,0.11363636363636363,7,7.954545454545454,3,22,25.0,0.7,0.3,10.0,6.0,14.666666666666666,7.363574011458175,10.0,31.0,13.0,11.0,12.0,11.0,6.0,88.0,78.0,1.0,76.0,86.36363636363636,,1.452490162167578,6.666666666666666,3.0,2.0,1.0,"[100.0, 83.87096774193549, 76.92307692307693, 90.9090909090909, 83.33333333333334, 90.9090909090909]"
6OwhwWQDThSPHTVAeXugohrYuje2,-167.7652173730553,0.6650082595828196,0.008333333333333333,0.0,0.008333333333333333,0.008333333333333333,30.86666667053842,25.59999990463257,8.560000014305114,15.0,1.0,1.0,1.0,0.0,109,1804.773913031039,1863.7999999523165,1841.2869565227757,1884.6000000238416,1.0,1.0,1.0,0.0,0.041666666666666664,0.9996846291062091,1675.9099999904633,1819.5,1803.2600000023842,1949.300000071526,0.8695652173913043,1.0,0.8695652173913043,0.041666666666666664,0.0,0.9989402091510291,1451.2399999916554,1438.3500000238419,1729.8849999845029,1734.4500000476837,0.9583333333333334,0.8333333333333334,0.8333333333333334,0.0,0.0,0.998511993645521,1050.9260869596314,1096.399999976158,1628.969565204952,1674.8000000715256,0.9583333333333334,1.0,0.9583333333333334,0.0,0.0,0.9976879876615867,814.5304347743158,704.2999999523163,1991.3652173747187,1887.3000000715256,1.0,1.0,1.0,0.041666666666666664,0.0,0.9993577717609917,324.0055555469461,62.04444442854992,261.96111111839616,62.04444442854992,339.6013071819458,62.04444442854992,277.5568627533959,62.04444442854992,-0.05555555555555558,0.0,108,0.007643228846143563,5.577066921386346,561.8194843539397,0.0,0.0,0.0,0.005260979069125322,5.385334757713187,801.1735888930616,0.0,0.0,0.0,0.006699149249650109,6.36301673270521,516.8463767046774,0.0,0.0,0.0,,,,,-0.0023822497770182418,-0.19173216367315948,239.35410453912186,128,75,0.5859375,0,0.0,75,0,0.0,0.0,1.0,128.0,1.0,128.0,0.0,128.0,,,,,,0.0,128.0,53.0,1.0,19.0,14.84375,,0.0,0.0,10.0,9.0,1.0,
6WFCyGwk71XLPBmbe4Vav3eotVm1,86.82737155959546,0.8201659475840727,0.016666666666666666,0.0,0.0,0.016666666666666666,398.30423729298576,266.64999985694885,97.56999993307983,154.72499990469078,0.1271186440677966,0.9361702127659575,1.0,0.06382978723404253,115,976.7409090128812,975.1499998569489,855.463636376641,720.1000001430511,1.0,0.9565217391304348,0.9565217391304348,0.0,0.041666666666666664,0.9598002079960828,705.7090908397328,655.5499999523163,685.8954546018081,614.4000000953674,1.0,0.9166666666666666,0.9166666666666666,0.0,0.0,0.9296003591551439,665.6333333651224,650.2000002861023,763.7791665991148,779.1499998569489,1.0,1.0,1.0,0.0,0.0,0.8312847257267523,541.8833333651224,463.4500000476837,730.7208333810171,661.3500001430511,1.0,1.0,1.0,0.0,0.0,0.876866084364275,474.9652174244756,459.4000000953674,683.8521739296291,655.8000001907349,1.0,1.0,1.0,0.0,0.041666666666666664,0.5212898540815324,30.483333415455263,-38.77777769830493,69.2611111137602,-38.77777769830493,30.483333415455263,-38.77777769830493,69.2611111137602,-38.77777769830493,0.0,0.0,108,0.009794640958383234,4.352053224975942,469.6756741559916,0.0,0.0,0.0,0.008791334351505972,4.848729108239541,448.0454575812695,0.0,0.0,0.0,0.013144312156766334,3.2429843617545315,526.957606054035,0.0,0.0,0.0,,,,,-0.0010033066068772627,0.4966758832635998,-21.630216574722112,69,7,0.10144927536231885,4,5.797101449275362,3,14,20.28985507246377,0.5714285714285714,0.42857142857142855,10.0,6.0,11.5,1.707825127659933,10.0,12.0,15.0,11.0,11.0,10.0,6.0,69.0,62.0,0.0,60.0,86.95652173913044,,10.606060606060607,1.666666666666668,3.0,2.0,1.0,"[100.0, 83.33333333333334, 66.66666666666666, 90.9090909090909, 90.9090909090909, 100.0]"
7cvQFrzIDEVAkFCcGAHZPUvJ2MF3,435.54130436544824,0.8345954112818194,0.0,0.0,0.0,0.0,364.6325000047781,151.80000007152557,63.29999995242106,81.05000001200824,0.35833333333333334,0.9583333333333334,1.0,0.04166666666666663,117,1277.5136363397944,1231.7999999523163,1143.3727272748947,1084.4500000476837,1.0,0.9166666666666666,0.9166666666666666,0.0,0.0,0.7379307403760317,1179.9999999801319,1034.049999833107,1212.670833349228,1126.5,1.0,1.0,1.0,0.0,0.0,0.9780001854800913,990.1541666885217,892.75,1142.7041666805744,1145.25,1.0,1.0,1.0,0.0,0.0,0.9071086501028853,700.8333333532015,553.75,975.1625000039736,775.9500000476837,1.0,1.0,1.0,0.0,0.0,0.8213218390943213,475.000000010366,456.7000000476837,743.9869565134463,724.3999998569489,0.9583333333333334,1.0,0.9583333333333334,0.0,0.0,0.2732660795114646,145.64166670375403,161.83055557145008,-16.18888886769605,161.83055557145008,145.64166670375403,161.83055557145008,-16.18888886769605,161.83055557145008,0.0,0.0,108,0.00786395479413807,5.420529477380511,699.4489009029126,0.0,0.0,0.0,0.007521146181048848,5.667593441784262,813.8499028322248,0.0,0.0,0.0,0.006463133288573568,6.595376710824581,700.2924752660795,0.0,0.0,0.0,,,,,-0.0003428086130892226,0.24706396440375045,114.4010019293122,76,12,0.15789473684210525,6,7.894736842105263,6,22,28.947368421052634,0.5,0.5,16.0,6.0,12.666666666666666,1.6996731711975948,16.0,11.0,13.0,11.0,12.0,13.0,6.0,76.0,64.0,0.0,60.0,78.94736842105263,,6.944444444444457,1.333333333333334,9.0,8.0,1.0,"[62.5, 90.9090909090909, 76.92307692307693, 90.9090909090909, 83.33333333333334, 76.92307692307693]"
80UJMJbCOMgs6YVpsMgXfYTzw6o2,161.60290135363402,0.7734588836209146,0.0,0.0,0.0,0.0,467.97833333339855,356.3500000005588,176.3400000013411,243.5,0.0,0.9791666666666666,0.9166666666666666,-0.0625,115,1085.8130434784714,1028.7000000011176,922.5695652172132,866.8000000007451,1.0,0.9583333333333334,0.9583333333333334,0.0,0.0,0.9382384112277703,956.4958333331937,922.2999999998137,851.2624999999534,863.6499999994412,1.0,1.0,1.0,0.0,0.0,0.9034965928440318,822.533333333442,772.4000000013039,802.4708333332868,712.4000000003725,1.0,1.0,1.0,0.0,0.0,0.8606050074546158,657.5772727271542,617.0999999996275,778.5954545456916,733.5000000009313,1.0,0.9166666666666666,0.9166666666666666,0.0,0.0,0.8976808185077462,522.2954545454545,487.1000000005588,724.5545454547656,650.3000000007451,1.0,0.9166666666666666,0.9166666666666666,0.0,0.0,0.5431119178479884,74.12777777787096,68.51111111106968,5.6166666668012795,68.51111111106968,74.12777777787096,68.51111111106968,5.6166666668012795,68.51111111106968,0.0,0.0,108,0.009721529992272682,4.384782930700807,480.08690901874013,0.0,0.0,0.0,0.009359431861234805,4.554421614731364,536.9214376393178,0.0,0.0,0.0,0.008413947896385963,5.066206648215953,475.1555358635656,0.0,0.0,0.0,,,,,-0.00036209813103787666,0.16963868403055749,56.83452862057766,71,10,0.14084507042253522,5,7.042253521126761,5,19,26.76056338028169,0.5,0.5,13.0,6.0,11.833333333333334,0.6871842709362769,13.0,12.0,12.0,12.0,11.0,11.0,6.0,71.0,61.0,0.0,60.0,84.50704225352112,,7.187257187257174,1.0,6.0,5.0,1.0,"[76.92307692307693, 83.33333333333334, 83.33333333333334, 83.33333333333334, 90.9090909090909, 90.9090909090909]"
87w5Le0CgZhSfYAaOH3Xd2fc98l1,147.71231884043664,0.7405814969340221,0.0,0.0,0.0,0.0,650.5533333335663,598.7000000011176,330.7300000000745,411.97499999860884,0.0,0.9583333333333334,1.0,0.04166666666666663,118,1523.0478260868592,1406.9000000022352,1081.017391304445,942.3000000007452,1.0,0.9583333333333334,0.9583333333333334,0.0,0.0,0.9482730194254784,1536.3521739134321,1560.800000000745,1165.373913043219,1153.4000000022352,1.0,0.9583333333333334,0.9583333333333334,0.0,0.0,0.8889822570162622,1189.2708333334886,1162.3999999985099,1009.6416666666046,910.5999999996275,1.0,1.0,1.0,0.0,0.0,0.8862513262988414,999.6124999998137,882.1999999992549,923.3583333327746,772.25,1.0,1.0,1.0,0.0,0.0,0.8548209116087966,814.929166666232,838.3000000007451,975.4833333333954,900.0500000007451,1.0,1.0,1.0,0.0,0.0,0.1777460058383132,90.04523809559282,-98.66285714294236,188.70809523853518,-98.66285714294236,90.04523809559282,-98.66285714294236,188.70809523853518,-98.66285714294236,0.02777777777777779,0.0,106,0.005257783021854971,8.053026317361136,627.5324129602474,0.0,0.0,0.0,0.005581389901095036,7.637308900790118,796.3453058677928,0.0,0.0,0.0,0.005924285124333822,7.14703363483604,686.8448198422813,0.0,0.0,0.0,,,,,0.000323606879240065,-0.4157174165710176,168.81289290754546,128,44,0.34375,14,10.9375,30,37,28.90625,0.3181818181818182,0.6818181818181818,46.0,6.0,21.333333333333332,11.827463332806783,46.0,20.0,23.0,16.0,13.0,10.0,5.0,128.0,84.0,0.0,73.0,57.03125,,0.0,0.0,35.0,34.0,1.0,"[28.26086956521739, 50.0, 78.26086956521739, 81.25, 76.92307692307693]"
8bwaafIhKVMNBoHaXFcY8HirS9u2,122.74530141383195,0.6312069227311902,0.0,0.0,0.0,0.0,388.6324999988089,238.75,127.25999999046326,156.1500000357628,0.0,0.9791666666666666,1.0,0.02083333333333337,118,1043.4565217598624,1026.5,932.2434782981873,932.2000000476836,1.0,0.9583333333333334,0.9583333333333334,0.0,0.0,0.9656717238315231,996.1666666666666,1011.5500001907347,948.9499999980131,972.4500000476837,1.0,1.0,1.0,0.0,0.0,0.9053613180941956,843.1391304264898,822.7999999523163,909.6608695776566,949.5,1.0,0.9583333333333334,0.9583333333333334,0.0,0.0,0.85215930150644,636.429166674614,599.6999999284744,860.9041666885217,788.7000000476837,1.0,1.0,1.0,0.0,0.0,0.584505855039165,514.7666666507721,491.85000002384186,818.0291666885217,799.0000001192093,1.0,1.0,1.0,0.0,0.0,-0.0382842090057813,30.705555518468145,-4.7805555793975145,35.48611109786566,-4.7805555793975145,24.18316989708569,-4.7805555793975145,28.963725476483205,-4.7805555793975145,-0.05555555555555558,0.0,108,0.008629852033042977,4.939458823534723,384.579012119668,0.0,0.0,0.0,0.006204114835642612,4.566668121259488,359.85445587633143,0.0,0.0,0.0,0.009554360523170142,4.461502019631723,431.0389992902202,0.0,0.0,0.0,,,,,-0.002425737197400365,-0.3727907022752355,-24.724556243336565,82,9,0.10975609756097561,7,8.536585365853659,2,25,30.48780487804878,0.7777777777777778,0.2222222222222222,11.0,6.0,13.666666666666666,4.714045207910316,11.0,12.0,13.0,12.0,24.0,10.0,6.0,82.0,73.0,0.0,70.0,85.36585365853658,,5.167055167055167,-3.333333333333334,4.0,3.0,1.0,"[90.9090909090909, 83.33333333333334, 76.92307692307693, 83.33333333333334, 83.33333333333334, 100.0]"
8cOQBMgQEYSlJ4CK60pFMmBVEBV2,20.302083373069763,0.5623768523086193,0.008333333333333333,0.0,0.0,0.008333333333333333,707.9882353053628,631.6999998090323,387.43999977130443,508.7500000001164,0.0,1.0,1.0,0.0,119,1716.8875000476837,1610.5500001907349,1118.5541666348774,1077.75,1.0,1.0,1.0,0.0,0.0,0.7803043091311945,1452.2374999920528,1460.8499999046326,1071.2583332856495,1126.5,1.0,1.0,1.0,0.0,0.0,0.8007401126739156,1487.466666618983,1435.7500004768372,1069.4249999125798,1062.4499998092651,1.0,1.0,1.0,0.0,0.0,0.5670290306540117,1040.3652173747187,815.7000007629395,1038.147826111835,911.8999996185304,1.0,1.0,1.0,0.0,0.041666666666666664,0.8362600181328413,844.2041666110357,784.7499995231628,1074.6041665871937,990.1999998092651,1.0,1.0,1.0,0.0,0.0,0.4106547386435394,317.7583335505592,50.77777788374169,266.9805556668175,50.77777788374169,317.49015896660944,50.77777788374169,266.71238108286775,50.77777788374169,-0.02777777777777779,0.0,108,0.006179859115929206,6.897697499371524,465.3788829570922,0.0,0.0,0.0,0.00491260177434583,7.237199807352287,629.7722744086849,0.0,0.0,0.0,0.006406275676282463,6.6539126513439975,553.8314159487876,0.0,0.0,0.0,,,,,-0.001267257341583376,0.3395023079807631,164.39339145159272,98,28,0.2857142857142857,6,6.122448979591836,22,23,23.46938775510204,0.21428571428571427,0.7857142857142857,38.0,6.0,16.333333333333332,9.706813185707357,38.0,12.0,12.0,11.0,13.0,12.0,6.0,98.0,70.0,0.0,60.0,61.224489795918366,,19.394348341716764,8.666666666666668,31.0,30.0,1.0,"[26.31578947368421, 83.33333333333334, 83.33333333333334, 90.9090909090909, 76.92307692307693, 83.33333333333334]"
9NTZ091xWyOO8DgzyTGY0O3i8IR2,-447.9164410057798,0.38475591425417716,0.0,0.0,0.0,0.0,236.88916666662942,162.29999999934807,111.15999999931083,131.27499999967404,0.06666666666666667,0.9791666666666666,0.9166666666666666,-0.0625,116,1003.0130434781313,857.7000000001863,869.5956521740021,779.7000000001863,1.0,0.9583333333333334,0.9583333333333334,0.0,0.0,0.9402921475942507,943.2749999999456,881.7499999995343,939.0750000001086,930.100000000093,1.0,1.0,1.0,0.0,0.0,0.9771409795171966,855.0391304347178,725.8999999994412,965.0173913041616,878.2999999998137,1.0,0.9583333333333334,0.9583333333333334,0.0,0.0,0.8949710805136074,604.1541666667521,552.0999999996275,1001.8291666665269,982.149999999907,1.0,1.0,1.0,0.0,0.0,0.7618471544944282,526.5545454545116,488.59999999962747,1352.9909090909853,1498.2999999998137,1.0,0.9166666666666666,0.9166666666666666,0.0,0.0,0.6170182409126852,34.01944444457888,42.18611111111625,-8.166666666537367,42.18611111111625,20.5055555556778,28.67222222221517,-8.166666666537367,28.67222222221517,0.05555555555555558,0.05555555555555558,108,0.004959002600877366,5.7132725511274245,309.50504876401806,0.0,0.0,0.0,0.008162398646294781,5.222337283142021,531.0396043245696,0.0,0.0,0.0,0.00828690518805304,5.143874317744923,548.4817771137685,0.0,0.0,0.0,,,,,0.0032033960454174153,-0.4909352679854031,221.53455556055155,91,10,0.10989010989010989,7,7.6923076923076925,3,19,20.87912087912088,0.7,0.3,11.0,6.0,15.166666666666666,4.597704741377907,11.0,20.0,13.0,12.0,23.0,12.0,6.0,91.0,81.0,1.0,77.0,84.61538461538461,,-5.968210533427921,-1.0,4.0,3.0,1.0,"[90.9090909090909, 95.0, 76.92307692307693, 83.33333333333334, 78.26086956521739, 83.33333333333334]"
9Xz1RIwnPXgyRqmucudW9VeuDnq1,-219.75845410629063,0.7399620991869618,0.016666666666666666,0.0,0.0,0.016666666666666666,302.58974358974655,176.99999999988358,101.6,130.0,0.07692307692307693,0.9782608695652174,1.0,0.021739130434782594,111,1439.590909090925,1373.0000000000582,1304.4999999999893,1202.5,1.0,0.9565217391304348,0.9565217391304348,0.0,0.041666666666666664,0.9836793921370836,1259.9565217391457,1085.0000000001164,1245.0434782608493,1139.0,1.0,1.0,1.0,0.041666666666666664,0.0,0.9874876845648131,1115.71428571428,964.9999999998836,1216.6666666666722,1103.0,0.875,1.0,0.875,0.0,0.0,0.9523999624636328,936.5454545454651,728.4999999999418,1236.954545454556,1173.5,0.9583333333333334,0.9583333333333334,0.9166666666666666,0.0,0.0,0.8923869452569629,803.3478260869414,675.0,1493.8695652173863,1745.9999999998836,1.0,1.0,1.0,0.0,0.041666666666666664,0.642021538269026,228.12745098039204,71.80555555555065,156.3218954248414,71.80555555555065,225.38928571428573,105.48650793650313,119.9027777777826,105.48650793650313,-0.08333333333333337,0.02777777777777779,106,0.005653491256158133,6.288765473222778,532.2005989041578,0.0,0.0,0.0,0.004629070319284118,5.989515239570956,712.0404670009392,0.0,0.0,0.0,0.005356905280891435,7.957355326491742,440.8838826981098,0.0,0.0,0.0,,,,,-0.0010244209368740148,-0.29925023365182213,179.8398680967814,71,9,0.1267605633802817,8,11.267605633802818,1,20,28.169014084507044,0.8888888888888888,0.1111111111111111,13.0,6.0,11.833333333333334,0.6871842709362769,13.0,12.0,12.0,11.0,11.0,12.0,6.0,71.0,62.0,0.0,60.0,84.50704225352112,,7.187257187257174,1.0,6.0,5.0,1.0,"[76.92307692307693, 83.33333333333334, 83.33333333333334, 90.9090909090909, 90.9090909090909, 83.33333333333334]"
A9AEg0g6c2P1Bk72HLmnK3oWJ9B2,157.9554077976561,0.7700881780448284,0.0,0.0,0.0,0.0,422.05583332578146,334.7500001192675,99.56999990940093,146.25,0.125,0.9791666666666666,1.0,0.02083333333333337,117,1118.882608683213,1060.5,1001.7043478385261,999.7999999523164,1.0,0.9583333333333334,0.9583333333333334,0.0,0.0,0.9285465336026391,1075.8125,1101.9500000476837,949.7208333412806,980.3999998569489,1.0,1.0,1.0,0.0,0.0,0.8266877409142935,841.0136363614689,714.7999999523163,901.0318181839856,825.6499999761581,1.0,0.9166666666666666,0.9166666666666666,0.0,0.0,0.9431278178224906,745.8666667044163,748.2000000476837,857.7041666507721,715.5999999046326,1.0,1.0,1.0,0.0,0.0,0.8655705787030001,506.8208333353202,455.90000009536743,817.2041666805744,648.6000000238419,1.0,1.0,1.0,0.0,0.0,0.8451702474422682,127.23888889948535,-44.74444444974256,171.9833333492279,-44.74444444974256,127.23888889948535,-44.74444444974256,171.9833333492279,-44.74444444974256,0.0,0.0,108,0.007836085511932179,5.439807759308451,496.1501738846135,0.0,0.0,0.0,0.005516022512864163,7.727814502388512,279.8172798281827,0.0,0.0,0.0,0.006754679623217902,6.3107062285962225,334.70401930799744,0.0,0.0,0.0,,,,,-0.0023200629990680153,2.288006743080061,-216.3328940564308,82,16,0.1951219512195122,9,10.975609756097562,7,24,29.268292682926827,0.5625,0.4375,22.0,6.0,13.666666666666666,3.815174380753199,22.0,11.0,13.0,11.0,12.0,13.0,6.0,82.0,66.0,0.0,60.0,73.17073170731707,,12.62626262626263,3.333333333333334,15.0,14.0,1.0,"[45.45454545454545, 90.9090909090909, 76.92307692307693, 90.9090909090909, 83.33333333333334, 76.92307692307693]"
ASGvwW80q7VY7xFaLGZhVuErUQu2,-361.1738095964704,0.5847618952718825,0.0,0.008333333333333333,0.008333333333333333,0.0,132.45438592476575,111.69999980949797,71.26000099149533,90.99999999953434,0.3508771929824561,1.0,0.9166666666666666,-0.08333333333333337,107,1593.4055557250977,1630.7000007629395,1547.1555554072063,1563.6999998092651,0.9,1.0,0.9,0.16666666666666666,0.0,0.9966192905361195,1575.65416653951,1583.300000190735,1620.162500301997,1620.8000001907349,1.0,1.0,1.0,0.0,0.0,0.9845260237758169,1345.7049998283387,1344.8999996185303,1535.7649998664856,1543.2499990463257,0.9090909090909091,0.9545454545454546,0.9090909090909091,0.08333333333333333,0.0,0.9759799147520416,1213.4999997615814,1130.0499992370605,1701.1249997615814,1678.300000190735,1.0,1.0,1.0,0.0,0.0,0.994896739003193,880.9619047074091,841.8999996185303,1950.0476192292713,1935.400001525879,0.9583333333333334,0.9166666666666666,0.875,0.0,0.0,0.9623483772077309,147.41111124886402,127.1416669421726,20.269444306691412,127.1416669421726,146.64671730272698,127.1416669421726,19.505050360554378,127.1416669421726,-0.08333333333333337,0.0,108,0.011197258831023953,3.806895903156962,612.9102489860907,0.0,0.0,0.0,0.006081730777847174,3.942784316485616,654.7023923212174,0.0,0.0,0.0,0.008047609481143258,5.2968274455034265,585.3704799788775,0.0,0.0,0.0,,,,,-0.005115528053176778,0.13588841332865398,41.79214333512675,80,9,0.1125,7,8.75,2,26,32.5,0.7777777777777778,0.2222222222222222,10.0,6.0,13.333333333333334,3.590109871423003,10.0,21.0,12.0,13.0,11.0,13.0,6.0,80.0,71.0,1.0,67.0,83.75,,-6.51015651015652,2.0,3.0,2.0,1.0,"[100.0, 80.95238095238095, 83.33333333333334, 76.92307692307693, 90.9090909090909, 76.92307692307693]"
AUKCfn4HzgVB7m6LNnh2gQb7G5s2,-31.05965898253703,0.7204730354482732,0.0,0.0,0.0,0.0,514.5649999539222,414.7999997139559,280.14000010469465,340.8750001192093,0.0,1.0,0.9583333333333334,-0.04166666666666663,117,1304.0458332896233,1181.9000000953674,1005.8041667342186,856.0499999523163,1.0,1.0,1.0,0.0,0.0,0.9825763567605675,1346.5958332618077,1118.5999999046326,1066.1583333611488,933.8499999046326,1.0,1.0,1.0,0.0,0.0,0.7932172108964476,1062.126086919204,1014.1999998092653,952.1391304472219,819.9000000953674,1.0,0.9583333333333334,0.9583333333333334,0.0,0.0,0.942466271822031,950.4541666309038,714.2000000476837,1019.7208333611488,865.0500001907349,1.0,1.0,1.0,0.0,0.0,0.8112732215217634,666.7045454111966,509.40000009536743,1067.0409090302207,863.8499999046326,0.9583333333333334,0.9583333333333334,0.9166666666666666,0.0,0.0,0.6535657417187078,84.56388889418713,-24.461111108461978,109.02500000264911,-24.461111108461978,88.57119048512175,-24.461111108461978,113.03230159358372,-24.461111108461978,-0.02777777777777779,0.0,108,0.007206271325147744,5.915236444353455,534.2694774487576,0.0,0.0,0.0,0.005785707763694672,6.145052959292604,520.311330099883,0.0,0.0,0.0,0.005932847915212087,7.184879737287076,320.1335381983207,0.0,0.0,0.0,,,,,-0.001420563561453072,0.22981651493914956,-13.958147348874604,94,20,0.2127659574468085,10,10.638297872340425,10,25,26.595744680851062,0.5,0.5,20.0,6.0,15.666666666666666,3.0912061651652345,20.0,16.0,15.0,12.0,19.0,12.0,6.0,94.0,74.0,1.0,66.0,70.2127659574468,,23.90350877192983,2.666666666666666,13.0,12.0,1.0,"[50.0, 62.5, 66.66666666666666, 83.33333333333334, 84.21052631578947, 83.33333333333334]"
AsXBOflrszVNKoFqbN61bMJqS0k2,29.13695651541161,0.5798438971820875,0.0,0.0,0.0,0.0,342.66250000098177,240.59999996429542,191.04000002145767,215.97500002384186,0.0,1.0,1.0,0.0,119,1466.62916666766,1423.0500000119207,1290.829166655739,1300.8000000119207,1.0,1.0,1.0,0.0,0.0,0.9779655475093176,1333.5874999761581,1358.7000000476837,1271.070833325386,1306.5,1.0,1.0,1.0,0.0,0.0,0.9814141896405766,1261.0958333263795,1242.149999976158,1317.4791666616995,1277.7499999403954,1.0,1.0,1.0,0.0,0.0,0.9561757618849629,886.3541666815678,823.6000000238419,1254.3250000079472,1199.8999999761581,1.0,1.0,1.0,0.0,0.0,0.9906820078917346,733.6608695569246,686.6999999284744,1251.813043475151,1135.0,0.9583333333333334,1.0,0.9583333333333334,0.0,0.0,0.4270814655373109,121.92222222023531,21.04444444179535,100.87777777843996,21.04444444179535,89.18207070682979,28.511507932345012,60.67056277448478,28.511507932345012,-0.08333333333333337,-0.02777777777777779,108,0.00773514340637994,5.510796184496677,379.1796243940252,0.0,0.0,0.0,0.005370956675391582,4.464558956107287,468.3344660815248,0.0,0.0,0.0,0.007538057387064272,4.7165309030289295,458.54682110177936,0.0,0.0,0.0,,,,,-0.0023641867309883583,-1.0462372283893897,89.15484168749958,105,20,0.19047619047619047,19,18.095238095238095,1,46,43.80952380952381,0.95,0.05,10.0,6.0,17.5,7.932002689527196,10.0,17.0,34.0,15.0,11.0,18.0,6.0,105.0,85.0,1.0,81.0,77.14285714285715,,-5.622895622895626,5.666666666666666,3.0,2.0,1.0,"[100.0, 76.47058823529412, 73.52941176470588, 86.66666666666667, 90.9090909090909, 55.55555555555556]"
BbwUTWswjtPWhb5DvLAmh9Hdpyl2,-6.1189743590016406,0.6610389359452906,0.10833333333333334,0.008333333333333333,0.0,0.10833333333333334,416.03962264151215,355.6500000000233,183.04999999993015,224.3750000000582,0.0,0.975,0.8333333333333334,-0.1416666666666666,99,1670.9722222222092,1678.5,1394.6499999999844,1383.3499999999767,1.0,1.0,1.0,0.041666666666666664,0.20833333333333334,0.9365056694151835,1386.638095238113,1386.7000000001865,1228.4190476190277,1149.3000000000466,1.0,0.9545454545454546,0.9545454545454546,0.0,0.08333333333333333,0.9592879124878688,1291.2299999999698,1256.4000000000233,1301.6349999999861,1282.1999999999534,1.0,1.0,1.0,0.0,0.16666666666666666,0.9645562488092592,1074.904999999993,1048.1500000000233,1238.5899999999558,1252.6999999999534,1.0,0.9090909090909091,0.9090909090909091,0.0,0.08333333333333333,0.564751323971577,690.0199999999953,634.25,1311.2600000000093,1276.0999999999767,1.0,0.8333333333333334,0.8333333333333334,0.0,0.0,0.2657374709881969,164.60000000003492,34.9138888888798,129.68611111115513,34.9138888888798,164.60000000003492,41.09785714284749,123.50214285718744,41.09785714284749,0.0,-0.02777777777777779,108,0.008209469506313708,5.192393824915232,452.56538526912374,0.0,0.0,0.0,0.006692433858680159,6.369401576546891,461.9776368927732,0.0,0.0,0.0,0.006814010883198388,5.217702352451469,439.52745584341653,0.0,0.0,0.0,,,,,-0.0015170356476335491,1.1770077516316588,9.412251623649468,128,79,0.6171875,1,0.78125,78,2,1.5625,0.012658227848101266,0.9873417721518988,126.0,2.0,64.0,62.0,126.0,2.0,,,,,1.0,128.0,49.0,0.0,16.0,12.5,,0.0,0.0,50.0,49.0,1.0,[12.698412698412698]
BcCTlXWx6ARh4rBtkdWRgZH3C7H2,36.02277772691514,0.6635985730442697,0.0,0.0,0.0,0.0,549.2466666738193,445.5500000715256,330.97000005245206,367.50000005960464,0.0,0.9791666666666666,1.0,0.02083333333333337,117,1206.4782608799312,1173.7999999523165,874.4869564927143,813.2999999523163,0.9583333333333334,1.0,0.9583333333333334,0.0,0.0,0.8997952633506492,1173.0727272900667,1140.7000000476837,910.5772726860913,895.6499999761581,0.9583333333333334,0.9583333333333334,0.9166666666666666,0.0,0.0,0.8995628227920088,1010.7749999761581,937.1500000953674,919.1708333392938,808.8500000238419,1.0,1.0,1.0,0.0,0.0,0.9695244460730358,743.3208333452543,645.7499998807907,859.2666666507721,752.6000000238419,1.0,1.0,1.0,0.0,0.0,0.8678426725462293,578.1541666785876,552.8000000715256,856.1083333492279,817.3999999761581,1.0,1.0,1.0,0.0,0.0,0.4314311086568755,328.4277777738042,54.525000015894534,273.9027777579097,54.525000015894534,352.5638888848374,54.525000015894534,298.0388888689429,54.525000015894534,-0.05555555555555558,0.0,108,0.008791960385621456,4.848383853062612,567.7169708149144,0.0,0.0,0.0,0.007073306523963977,4.005500587960445,936.6682048331654,0.0,0.0,0.0,0.008090392546273478,5.268817121864817,573.7343157646915,0.0,0.0,0.0,,,,,-0.0017186538616574794,-0.8428832651021665,368.95123401825106,77,10,0.12987012987012986,5,6.493506493506493,5,20,25.97402597402597,0.5,0.5,13.0,6.0,12.833333333333334,1.0671873729054748,13.0,13.0,12.0,14.0,14.0,11.0,6.0,77.0,67.0,0.0,60.0,77.92207792207793,,-1.1377511377511524,-0.3333333333333339,6.0,5.0,1.0,"[76.92307692307693, 76.92307692307693, 83.33333333333334, 71.42857142857143, 71.42857142857143, 90.9090909090909]"
C4HWhqUIJ3Rl6SboyJGqlrXFAJJ2,206.03278985662735,0.7124187418690823,0.0,0.0,0.0,0.0,336.5741666754077,248.39999997615814,96.35000016690465,138.44999998810817,0.10833333333333334,0.9583333333333334,1.0,0.04166666666666663,116,1143.7863636558707,1078.5999999046326,1043.5999999913302,1019.3000000715256,1.0,0.9166666666666666,0.9166666666666666,0.0,0.0,0.9195483929262671,1153.0124999980133,1158.5,1112.574999988079,1015.9500000476837,1.0,1.0,1.0,0.0,0.0,0.879729507559495,899.0869565528373,900.1000001430511,1013.5521738943846,1007.5999999046326,0.9583333333333334,1.0,0.9583333333333334,0.0,0.0,0.8728791511224799,604.3391304534415,614.7999999523163,918.6999999751215,888.0999999046326,0.9583333333333334,1.0,0.9583333333333334,0.0,0.0,0.7709503433640207,403.89999997615814,387.64999997615814,873.5541666547457,806.3000000715256,1.0,1.0,1.0,0.0,0.0,0.6559887226304606,15.205555564827478,-113.3250000013245,128.53055556615197,-113.3250000013245,15.205555564827478,-116.14523809523803,131.3507936600655,-116.14523809523803,0.0,-0.02777777777777779,108,0.007507501847931639,5.6778938765305975,525.272761010928,0.0,0.0,0.0,0.007120208214822854,5.986734865656414,499.39564434668256,0.0,0.0,0.0,0.0069968613233675455,5.081347045732568,433.8283741186528,0.0,0.0,0.0,,,,,-0.0003872936331087845,0.3088409891258168,-25.87711666424542,105,17,0.1619047619047619,11,10.476190476190476,6,31,29.523809523809526,0.6470588235294118,0.35294117647058826,27.0,6.0,17.5,5.993051532121734,27.0,17.0,13.0,11.0,24.0,13.0,6.0,105.0,88.0,1.0,83.0,79.04761904761905,,1.1999075724565813,3.0,8.0,7.0,1.0,"[74.07407407407408, 88.23529411764706, 76.92307692307693, 90.9090909090909, 75.0, 76.92307692307693]"
CDEoAyvS8feXLKMKsaZah9agEhF3,132.19999999998197,0.7670103697189452,0.0,0.0,0.0,0.0,524.5025000000111,423.79999999981374,312.54000000000235,361.10000000012224,0.0,1.0,1.0,0.0,119,1360.7666666667017,1375.0500000000466,1046.2208333332867,1112.399999999907,1.0,1.0,1.0,0.0,0.0,0.8831558354628621,1247.8217391303901,1152.6000000000931,996.7260869565096,971.5,0.9583333333333334,1.0,0.9583333333333334,0.0,0.0,0.9757853558418531,1145.0416666666085,1198.8499999998603,1036.0624999999807,963.4999999997672,1.0,1.0,1.0,0.0,0.0,0.9470168495269721,854.5541666666977,737.5,1013.7000000000893,1006.25,1.0,1.0,1.0,0.0,0.0,0.9096661968566495,623.025000000062,540.8000000000466,889.7999999999884,722.4000000001397,1.0,1.0,1.0,0.0,0.0,0.896658819467066,194.08888888889408,81.67222222221449,112.41666666667959,81.67222222221449,194.08888888889408,81.67222222221449,112.41666666667959,81.67222222221449,0.0,0.0,108,0.01066215445848629,3.997953597125523,563.3439322263146,0.0,0.0,0.0,0.006528725230242218,6.529115143789216,453.5681903207584,0.0,0.0,0.0,0.00796786190214878,5.349841562755695,500.903300718916,0.0,0.0,0.0,,,,,-0.004133429228244073,2.531161546663693,-109.77574190555617,68,6,0.08823529411764706,6,8.823529411764707,0,20,29.411764705882355,1.0,0.0,10.0,6.0,11.333333333333334,0.9428090415820634,10.0,11.0,11.0,11.0,12.0,13.0,6.0,68.0,62.0,0.0,60.0,88.23529411764706,,-10.217560217560203,-1.333333333333334,3.0,2.0,1.0,"[100.0, 90.9090909090909, 90.9090909090909, 90.9090909090909, 83.33333333333334, 76.92307692307693]"
CGyTPhevTbSvVnZ8qSP0NtWuhgw1,292.49791664878524,0.8512511822860643,0.0,0.0,0.0,0.0,536.26249999404,394.7999999523163,212.46999990940094,258.02500009536743,0.008333333333333333,1.0,1.0,0.0,120,1289.7958333293598,1102.4499999284744,1056.9000000059605,923.9499999284744,1.0,1.0,1.0,0.0,0.0,0.9714166835698895,1040.4041666587193,889.0,834.395833303531,773.0999999046326,1.0,1.0,1.0,0.0,0.0,0.8202395672984326,792.1916666328907,709.9999998807907,745.9375,663.3500000238419,1.0,1.0,1.0,0.0,0.0,0.8111588962545966,792.6875,640.2999999523163,874.0749999880791,786.8000000715256,1.0,1.0,1.0,0.0,0.0,0.7731444300921951,532.1333333452543,552.8500000238419,653.1500000059605,626.2000000476837,1.0,1.0,1.0,0.0,0.0,0.5313770376100408,386.81388890080984,69.18888889418713,317.6250000066227,69.18888889418713,398.02023810488845,69.18888889418713,328.8313492107013,69.18888889418713,-0.02777777777777779,0.0,108,0.006524285578824302,6.53355808163362,416.5063470968104,0.0,0.0,0.0,0.004662304811816079,7.62573063107927,528.955333306864,0.0,0.0,0.0,0.006296769115923104,6.769630263656908,449.8811903118873,0.0,0.0,0.0,,,,,-0.0018619807670082235,1.0921725494456496,112.44898621005359,91,20,0.21978021978021978,11,12.087912087912088,9,24,26.373626373626376,0.55,0.45,16.0,6.0,15.166666666666666,2.91070819942883,16.0,15.0,11.0,12.0,19.0,18.0,6.0,91.0,71.0,0.0,64.0,70.32967032967034,,-2.111022505759351,-2.333333333333332,9.0,8.0,1.0,"[62.5, 66.66666666666666, 90.9090909090909, 83.33333333333334, 52.63157894736842, 77.77777777777779]"
CN1ySCsiSLN4m9yh9fS4s5p6T8k1,-82.27007077856001,0.5901767697700148,0.0,0.0,0.0,0.0,530.9769230769174,439.5,322.9599999999395,395.5999999999767,0.0,0.9347826086956522,1.0,0.06521739130434778,110,1754.8909090909028,1720.2999999999884,1297.4545454545403,1248.0,1.0,0.9565217391304348,0.9565217391304348,0.041666666666666664,0.0,0.7439651899323582,1435.109523809526,1469.0,1119.047619047619,1121.4000000000233,1.0,0.9130434782608695,0.9130434782608695,0.041666666666666664,0.0,0.8990888237167327,1415.6904761904707,1367.0,1285.0380952380863,1257.1999999999534,0.9166666666666666,0.9583333333333334,0.875,0.0,0.0,0.949750299862869,1243.0434782608747,1153.4000000000233,1390.386956521735,1326.9000000000233,1.0,0.9583333333333334,0.9583333333333334,0.0,0.0,0.8972336457488989,847.0086956521719,833.8000000000466,1292.595652173906,1141.5,1.0,1.0,1.0,0.041666666666666664,0.0,0.6221411998557378,82.35277777778936,-56.95000000001164,139.302777777801,-56.95000000001164,82.35277777778936,-56.95000000001164,139.302777777801,-56.95000000001164,0.0,0.0,108,0.008056766342637486,5.290807373279088,600.464011125126,0.0,0.0,0.0,0.006003299610502822,7.1005616137894005,427.0808751790389,0.0,0.0,0.0,0.008119315481342532,5.250048340696431,548.4135201866022,0.0,0.0,0.0,,,,,-0.002053466732134664,1.8097542405103129,-173.38313594608712,81,17,0.20987654320987653,9,11.11111111111111,8,21,25.925925925925924,0.5294117647058824,0.47058823529411764,16.0,6.0,13.5,2.6299556396765835,16.0,12.0,11.0,18.0,11.0,13.0,6.0,81.0,64.0,0.0,60.0,74.07407407407408,,-4.451566951566946,-1.0,9.0,8.0,1.0,"[62.5, 83.33333333333334, 90.9090909090909, 55.55555555555556, 90.9090909090909, 76.92307692307693]"
CUNlBEszJVRGK1jWlTaOaCqpDg53,119.9629870131048,0.7799610401856609,0.0,0.0,0.06666666666666667,0.05,440.11636363641594,336.90000000037253,132.97000000011175,166.6500000008091,0.00909090909090909,0.9777777777777777,1.0,0.022222222222222254,105,1352.4550000000745,1266.6500000003725,1140.270000000298,1040.800000000745,1.0,0.9523809523809523,0.9523809523809523,0.125,0.0,0.9519371028590641,1373.4772727273573,1445.4500000001863,1203.3954545455053,1208.5499999998137,0.9166666666666666,1.0,0.9166666666666666,0.0,0.0,0.7981174739872352,1144.7850000000558,1087.2499999990687,1175.835000000056,1121.3499999996275,0.9523809523809523,1.0,0.9523809523809523,0.125,0.0,0.9324814331792116,840.2380952380065,838.6999999992549,1093.2095238091867,1014.1999999992548,1.0,1.0,1.0,0.125,0.0,0.8942770264079303,676.2227272726595,628.4500000001863,1053.372727272778,1022.7000000001863,0.9565217391304348,1.0,0.9565217391304348,0.041666666666666664,0.0,0.6374015485090732,98.90277777777771,32.136111111017954,66.76666666675976,32.136111111017954,98.90277777777771,32.136111111017954,66.76666666675976,32.136111111017954,0.0,0.0,108,0.00842312804061993,5.06068512372702,453.26263858372687,0.0,0.0,0.0,0.007385874582148892,5.771394883070313,464.37300710940855,0.0,0.0,0.0,0.007534151100838323,5.657810442064286,412.41063470919784,0.0,0.0,0.0,,,,,-0.0010372534584710373,0.7107097593432927,11.110368525681679,76,12,0.15789473684210525,11,14.473684210526317,1,23,30.263157894736842,0.9166666666666666,0.08333333333333333,10.0,6.0,12.666666666666666,1.4907119849998596,10.0,13.0,12.0,15.0,13.0,13.0,6.0,76.0,64.0,0.0,63.0,82.89473684210526,,-6.581196581196593,-2.0,3.0,2.0,1.0,"[100.0, 76.92307692307693, 83.33333333333334, 86.66666666666667, 76.92307692307693, 76.92307692307693]"
Cbkx2NHyF3NrebzXGqNgSfiWent1,-372.8666666643694,0.32096074154335313,0.0,0.0,0.0,0.0,301.85500000057124,200.5,110.17999999970198,141.2500000037253,0.1,1.0,1.0,0.0,120,1100.9500000004966,1108.5500000044703,927.3041666659216,871.0,1.0,1.0,1.0,0.0,0.0,0.8888746623829509,1179.3125,1181.5499999895692,1076.7208333344508,970.0999999940395,1.0,1.0,1.0,0.0,0.0,0.9013815090721369,957.2916666654249,926.9499999955297,995.3875000004967,966.8500000014901,1.0,1.0,1.0,0.0,0.0,0.8149425633737003,754.1583333319674,639.9999999925494,1111.0041666670393,1047.8500000014901,1.0,1.0,1.0,0.0,0.0,0.8099258750688773,625.5125000004967,624.7000000029802,1374.8791666645557,1622.6499999985099,1.0,1.0,1.0,0.0,0.0,-0.13422310944684965,205.50555555439655,53.797222222718915,151.70833333167764,53.797222222718915,205.50555555439655,47.44261904821269,158.06293650618386,47.44261904821269,0.0,-0.02777777777777779,108,0.009447246921919946,4.512086867498773,532.4207941660983,0.0,0.0,0.0,0.007476321513639782,5.701573787676864,599.3803711662085,0.0,0.0,0.0,0.007640272439447668,4.6534309995710545,524.4197346643004,0.0,0.0,0.0,,,,,-0.001970925408280164,1.1894869201780907,66.95957700011024,71,8,0.11267605633802817,5,7.042253521126761,3,19,26.76056338028169,0.625,0.375,13.0,6.0,11.833333333333334,0.8975274678557508,13.0,11.0,11.0,11.0,12.0,13.0,6.0,71.0,63.0,0.0,60.0,84.50704225352112,,-2.525252525252526,-0.3333333333333339,6.0,5.0,1.0,"[76.92307692307693, 90.9090909090909, 90.9090909090909, 90.9090909090909, 83.33333333333334, 76.92307692307693]"
Co587hoelyeANqFX7AYvuVQW0lZ2,50.300177308737375,0.71144788286121,0.0,0.0,0.0,0.0,445.559999999402,335.84999999403954,177.39999995231628,238.64999997615814,0.0,1.0,1.0,0.0,118,933.2130434798157,871.0,738.7869565253673,691.5999999642372,0.9583333333333334,1.0,0.9583333333333334,0.0,0.0,0.966343365376914,846.6375000004967,765.0999999940395,713.5666666676601,642.9500000178814,1.0,1.0,1.0,0.0,0.0,0.7410716921739584,740.0130434787792,630.0999999642372,758.1565217375755,672.8999999761581,1.0,0.9583333333333334,0.9583333333333334,0.0,0.0,0.9585152128672887,467.5291666686535,429.7500000298023,680.3833333353201,654.9499999880791,1.0,1.0,1.0,0.0,0.0,0.7840591968879307,429.7958333392938,409.15000000596046,675.6083333318433,598.0999999940395,1.0,1.0,1.0,0.0,0.0,0.410695119871689,27.166666668322364,-6.225000000662249,33.39166666898461,-6.225000000662249,26.858888890156663,-6.225000000662249,33.08388889081891,-6.225000000662249,-0.02777777777777779,0.0,108,0.007530194088847739,5.66078354255752,276.42965673034684,0.0,0.0,0.0,0.0072469112262154405,4.906018509828119,349.03470364801643,0.0,0.0,0.0,0.00849395934219865,5.018483966439532,348.42719960465496,0.0,0.0,0.0,,,,,-0.0002832828626322982,-0.7547650327294013,72.6050469176696,82,15,0.18292682926829268,9,10.975609756097562,6,22,26.82926829268293,0.6,0.4,11.0,6.0,13.666666666666666,4.6785562825394,11.0,24.0,11.0,11.0,13.0,12.0,6.0,82.0,67.0,0.0,66.0,80.48780487804879,,0.8935508935509091,3.333333333333334,4.0,3.0,1.0,"[90.9090909090909, 66.66666666666666, 90.9090909090909, 90.9090909090909, 76.92307692307693, 83.33333333333334]"
CtJe4bZZnYUBNrcPk00d3YQFSGp2,108.17678916830266,0.6191815684435329,0.0,0.0,0.0,0.0,677.879999999962,648.4499999998952,292.68999999957157,450.1750000001921,0.0,0.9791666666666666,0.9166666666666666,-0.0625,116,1620.5695652173752,1588.4000000003723,1121.278260869632,1087.8000000002794,1.0,0.9583333333333334,0.9583333333333334,0.0,0.0,0.7117386885493365,1426.487499999969,1326.8499999998603,1092.025000000033,923.1000000000931,1.0,1.0,1.0,0.0,0.0,0.8753989818194262,1315.2913043478038,1280.2000000001865,1025.6913043478119,941.8999999999068,1.0,0.9583333333333334,0.9583333333333334,0.0,0.0,0.770751712587728,1112.7458333333489,1004.6500000001397,1041.5041666667287,931.75,1.0,1.0,1.0,0.0,0.0,0.5587032571357052,772.5409090909048,716.5499999999302,998.1636363636618,923.9000000000233,1.0,0.9166666666666666,0.9166666666666666,0.0,0.0,0.22959424058932093,107.90833333330613,44.57777777775971,63.330555555546425,44.57777777775971,107.90833333330613,44.57777777775971,63.330555555546425,44.57777777775971,0.0,0.0,108,0.008731051857925748,4.8822065730508815,469.93322526609285,0.0,0.0,0.0,0.007898834556143137,5.396593442669487,517.5460282114836,0.0,0.0,0.0,0.009234282751865622,4.616146149715982,543.3301684761275,0.0,0.0,0.0,,,,,-0.0008322173017826107,0.5143868696186056,47.6128029453908,80,16,0.2,11,13.750000000000002,5,23,28.749999999999996,0.6875,0.3125,13.0,6.0,13.333333333333334,1.3743685418725535,13.0,14.0,13.0,16.0,12.0,12.0,6.0,80.0,64.0,0.0,60.0,75.0,,1.2973137973138051,0.0,6.0,5.0,1.0,"[76.92307692307693, 71.42857142857143, 76.92307692307693, 62.5, 83.33333333333334, 83.33333333333334]"
DAKDKPH698P12JfTbbjemLI6PIH2,12.952083331843255,0.4446715120408445,0.0,0.0,0.0,0.0,393.9533333306516,293.5,246.90000002980233,265.49999998509884,0.0,1.0,1.0,0.0,120,1108.9958333298564,1100.3499999940395,863.3624999970198,876.3999999761581,1.0,1.0,1.0,0.0,0.0,0.8382109021061447,1010.1708333293597,1018.5,892.3916666656733,897.3000000119209,1.0,1.0,1.0,0.0,0.0,0.9491590992459561,781.2208333387971,740.6500000059605,814.1875000024835,780.3499999940395,1.0,1.0,1.0,0.0,0.0,0.95064087216032,559.4291666646799,508.8499999642372,839.9249999995033,813.5499999821186,1.0,1.0,1.0,0.0,0.0,0.9218485174382306,428.0750000004967,391.40000000596046,864.9249999995033,777.5499999523163,1.0,1.0,1.0,0.0,0.0,0.8271184347861751,65.56111111905841,40.28888889319376,25.272222225864653,40.28888889319376,65.56111111905841,40.28888889319376,25.272222225864653,40.28888889319376,0.0,0.0,108,0.013179693578011815,3.2342784388803327,479.8951218077141,0.0,0.0,0.0,0.008796976481001719,4.845619271856829,396.9837044581951,0.0,0.0,0.0,0.010790080883993962,3.9505541458587135,461.4959573954683,0.0,0.0,0.0,,,,,-0.004382717097010096,1.611340832976496,-82.91141734951896,86,15,0.1744186046511628,7,8.13953488372093,8,23,26.744186046511626,0.4666666666666667,0.5333333333333333,16.0,6.0,14.333333333333334,3.815174380753199,16.0,11.0,11.0,13.0,22.0,13.0,6.0,86.0,71.0,1.0,67.0,77.90697674418605,,-4.399766899766888,-3.333333333333334,9.0,8.0,1.0,"[62.5, 90.9090909090909, 90.9090909090909, 76.92307692307693, 77.27272727272727, 76.92307692307693]"
DPvStUYSmohmXwFwaKRqHv89R3k1,69.53568840696323,0.649857978851616,0.0,0.0,0.0,0.0,582.6616666654746,508.1500000357628,321.2,373.9750000536442,0.0,0.9791666666666666,1.0,0.02083333333333337,114,1322.0173913033111,1263.7999999523165,915.4478260900663,851.6999999284744,0.9583333333333334,1.0,0.9583333333333334,0.0,0.0,0.8351546444249927,1220.0434782401376,1190.5999999046326,897.5652173964874,959.2000000476836,1.0,0.9583333333333334,0.9583333333333334,0.0,0.0,0.7642084180989298,1074.9666666636865,1012.1499999761581,932.6708333392938,853.1999999880791,1.0,1.0,1.0,0.0,0.0,0.9414173100880042,757.7549999773503,630.3500000238419,861.2200000047684,665.0999999642372,0.9583333333333334,0.875,0.8333333333333334,0.0,0.0,0.8917791238645999,528.6791666547457,499.7000000476837,836.9708333363136,772.7000000476837,1.0,1.0,1.0,0.0,0.0,0.36640556178120715,216.9000000026491,25.219444433848025,191.68055556880108,25.219444433848025,217.89949495804433,25.219444433848025,192.6800505241963,25.219444433848025,-0.08333333333333337,0.0,108,0.006729712560676299,6.334118788296277,457.1584807190535,0.0,0.0,0.0,0.004339632523600284,5.525572176348719,602.0601378430683,0.0,0.0,0.0,0.007046204907889072,6.049611007293782,522.556862373661,0.0,0.0,0.0,,,,,-0.002390080037076015,-0.8085466119475582,144.90165712401483,63,3,0.047619047619047616,3,4.761904761904762,0,18,28.57142857142857,1.0,0.0,10.0,6.0,10.5,0.5,10.0,11.0,11.0,10.0,10.0,11.0,6.0,63.0,60.0,0.0,60.0,95.23809523809524,,3.030303030303017,0.3333333333333321,3.0,2.0,1.0,"[100.0, 90.9090909090909, 90.9090909090909, 100.0, 100.0, 90.9090909090909]"
DaRehVxIOhXtEtUExdgvUl0mKcx2,10.356521736514196,0.6829611205954035,0.008333333333333333,0.016666666666666666,0.016666666666666666,0.025,739.7876106231613,619.6999999880791,431.91999999284747,502.2000000476837,0.0,1.0,1.0,0.0,109,1808.8227272711017,1798.7000000178814,1320.6590909063816,1292.9000000059605,1.0,1.0,1.0,0.08333333333333333,0.0,0.8419441424853292,1662.9350000083446,1623.2500000298023,1243.0449999898672,1225.699999988079,0.9090909090909091,1.0,0.9090909090909091,0.041666666666666664,0.041666666666666664,0.8745387377372221,1587.8652173954508,1460.100000023842,1248.3000000041463,1184.600000023842,0.9583333333333334,1.0,0.9583333333333334,0.0,0.0,0.8642465401558387,1379.4666666672342,1282.600000023842,1302.2238095175653,1214.800000011921,1.0,0.9545454545454546,0.9545454545454546,0.08333333333333333,0.0,0.6592664269956757,1088.013043473596,970.5,1273.3434782572415,1178.9000000357628,1.0,1.0,1.0,0.041666666666666664,0.0,0.7414836253410887,474.18055555721116,115.38055554529024,358.80000001192093,115.38055554529024,480.58873015959125,115.38055554529024,365.208174614301,115.38055554529024,-0.02777777777777779,0.0,108,0.006374802780472446,6.686763534236594,538.105851476553,0.0,0.0,0.0,0.0051196562373921044,6.944505444569592,888.0532725733684,0.0,0.0,0.0,0.006733317376737991,6.330727691179187,706.3399182850364,0.0,0.0,0.0,,,,,-0.0012551465430803415,0.25774191033299854,349.94742109681545,128,64,0.5,38,29.6875,26,62,48.4375,0.59375,0.40625,15.0,5.0,25.6,30.532605522621225,15.0,86.0,13.0,12.0,2.0,,4.0,128.0,64.0,0.0,40.0,31.25,,0.0,0.0,8.0,7.0,1.0,"[66.66666666666666, 11.627906976744185, 76.92307692307693, 83.33333333333334]"
DxSidjznjVSNDJuDqqGgxpMEGtw1,-174.72305988948256,0.6607186663992662,0.025,0.008333333333333333,0.041666666666666664,0.06666666666666667,705.8153153174651,579.4000000953674,351.59999990457436,399.8000000715838,0.0,0.9545454545454546,0.9583333333333334,0.0037878787878787845,106,1635.7285714035943,1623.5,1198.5047619456336,1147.6000001430511,0.9545454545454546,1.0,0.9545454545454546,0.041666666666666664,0.041666666666666664,0.7854351932292221,1613.7700000166892,1493.5,1233.9499999642371,1099.0999999046326,1.0,0.9090909090909091,0.9090909090909091,0.08333333333333333,0.0,0.8562890705484894,1824.4285714285713,1737.0999999046326,1434.457142863955,1427.5,1.0,1.0,1.0,0.08333333333333333,0.041666666666666664,0.833602593816724,1311.181818170981,1184.0500000715256,1287.3681817921724,1213.6499999761581,1.0,1.0,1.0,0.041666666666666664,0.041666666666666664,0.774169030954521,1210.4409090822394,1101.5,1390.518181844191,1223.25,0.9583333333333334,0.9583333333333334,0.9166666666666666,0.0,0.0,0.672695360297264,140.70000000794744,14.638888869020775,126.06111113892666,14.638888869020775,140.70000000794744,14.638888869020775,126.06111113892666,14.638888869020775,0.0,0.0,108,0.007403555217078455,5.757612055365249,674.6239997349036,0.0,0.0,0.0,0.007070612999144652,6.028727463314689,778.8833613724767,0.0,0.0,0.0,0.006954256906858438,6.129597934234171,638.8363431106696,0.0,0.0,0.0,,,,,-0.0003329422179338031,0.27111540794943956,104.25936163757308,68,6,0.08823529411764706,5,7.352941176470589,1,21,30.88235294117647,0.8333333333333334,0.16666666666666666,10.0,6.0,11.333333333333334,0.9428090415820634,10.0,13.0,11.0,11.0,12.0,11.0,6.0,68.0,62.0,0.0,60.0,88.23529411764706,,-0.8935508935508949,0.0,3.0,2.0,1.0,"[100.0, 76.92307692307693, 90.9090909090909, 90.9090909090909, 83.33333333333334, 90.9090909090909]"
DzB19GqCB7fyrlEPexogWkjFzEx2,147.39130431955516,0.7669413353746356,0.0,0.0,0.008333333333333333,0.0,522.4715517204373,415.9500000477128,208.55000007152557,290.125,0.0,1.0,0.9565217391304348,-0.04347826086956519,113,1590.8124999900658,1504.1499999761581,1251.7583333353202,1145.1500000953674,1.0,1.0,1.0,0.0,0.0,0.8563351254971139,1400.681818170981,1229.1999999284744,1082.986363638531,1080.4500000476835,1.0,1.0,1.0,0.08333333333333333,0.0,0.7519944321595707,1514.5956521552541,1388.0,1379.539130407831,1391.6999998092651,1.0,1.0,1.0,0.041666666666666664,0.0,0.8509158844993807,1029.2272727272727,772.6000000238419,1243.3272727402773,1077.1999999284744,1.0,0.9166666666666666,0.9166666666666666,0.0,0.0,0.9633969331158517,641.1772727424449,570.5499999523163,1023.6500000303441,854.5499999523163,1.0,0.9565217391304348,0.9565217391304348,0.041666666666666664,0.0,0.8129216856965371,180.58055557183957,89.49722221201523,91.08333335982434,89.49722221201523,180.58055557183957,89.49722221201523,91.08333335982434,89.49722221201523,0.05555555555555558,0.05555555555555558,106,0.00586403225450614,7.170309501895949,558.1013159552288,0.0,0.0,0.0,0.005594510789827561,7.619397007495464,670.0256084110907,0.0,0.0,0.0,0.0057363780519283925,7.430960509320579,611.2841110556636,0.0,0.0,0.0,,,,,-0.00026952146467857947,0.4490875055995147,111.92429245586197,79,13,0.16455696202531644,8,10.126582278481013,5,26,32.91139240506329,0.6153846153846154,0.38461538461538464,15.0,6.0,13.166666666666666,1.7716909687891083,15.0,13.0,12.0,16.0,11.0,12.0,6.0,79.0,66.0,0.0,63.0,79.74683544303798,,9.523115773115762,0.3333333333333339,8.0,7.0,1.0,"[66.66666666666666, 76.92307692307693, 83.33333333333334, 81.25, 90.9090909090909, 83.33333333333334]"
EEodWwGh0wWq5f8JmzfKvq0lyeu1,122.54329004329043,0.686785439927383,0.0,0.016666666666666666,0.0,0.0,578.1610169491545,490.4999999999418,138.00000000000003,299.0,0.06779661016949153,0.9347826086956522,0.9166666666666666,-0.018115942028985588,106,1303.5263157894615,1304.0,958.8947368421175,910.0000000000582,0.9565217391304348,0.8695652173913043,0.8260869565217391,0.041666666666666664,0.0,0.7045016038702044,1129.869565217404,1080.0,949.8695652173964,910.0000000001164,1.0,1.0,1.0,0.041666666666666664,0.0,0.8620577868770638,1094.3500000000088,938.5,963.9499999999855,904.0,0.9583333333333334,0.875,0.8333333333333334,0.0,0.0,0.873005740011879,892.0909090909144,758.5000000001164,932.4545454545402,810.4999999999418,0.9583333333333334,0.9583333333333334,0.9166666666666666,0.0,0.0,0.6433898405917026,693.0909090909091,597.5000000000291,831.4090909090988,836.5000000000291,1.0,0.9166666666666666,0.9166666666666666,0.0,0.0,0.24258341801928796,183.47222222222217,21.805555555555884,161.6666666666663,21.805555555555884,153.00000000000136,20.237373737374924,132.76262626262644,20.237373737374924,0.0,0.08333333333333337,108,0.005927912690870252,4.045092088639291,377.1596357453193,0.0,0.0,0.0,0.005115142999308696,4.687836240594725,432.62551424692447,0.0,0.0,0.0,0.007675798731914943,5.553402357096296,330.02324149847243,0.0,0.0,0.0,,,,,-0.0008127696915615559,0.6427441519554344,55.465878501605175,96,14,0.14583333333333334,11,11.458333333333332,3,30,31.25,0.7857142857142857,0.21428571428571427,10.0,6.0,16.0,5.066228051190222,10.0,24.0,20.0,11.0,13.0,18.0,6.0,96.0,82.0,1.0,79.0,82.29166666666666,,-5.074462574462586,4.0,3.0,2.0,1.0,"[100.0, 70.83333333333334, 90.0, 90.9090909090909, 76.92307692307693, 77.77777777777779]"
EUhcW9kURScie1DwGPHqmNqotJB2,162.64143871632996,0.7405624115942709,0.0,0.025,0.0,0.0,494.0794871750041,402.90000009536743,209.85999994277955,243.0,0.0,1.0,0.9565217391304348,-0.04347826086956519,111,1425.6826086769934,1312.7999999523165,1112.5869565217392,1082.2000000476835,1.0,1.0,1.0,0.041666666666666664,0.0,0.920364732929193,1293.2958333194256,1204.4500000476837,1049.420833359162,971.5,1.0,1.0,1.0,0.0,0.0,0.6760086243697883,1143.9952381111327,989.7000000476836,1140.2999999977294,1043.0,0.9583333333333334,0.9166666666666666,0.875,0.0,0.0,0.9783695873384225,809.8681817813354,716.5999999046326,966.0045454502106,862.5499999523163,1.0,1.0,1.0,0.041666666666666664,0.0,0.7195885309563116,599.7523809501103,573.2999999523163,917.6904761904761,881.2000000476837,1.0,0.9565217391304348,0.9565217391304348,0.041666666666666664,0.0,0.2057627845205478,129.94166664944737,49.07777779632124,80.86388885312613,49.07777779632124,130.55682537650296,49.07777779632124,81.47904758018171,49.07777779632124,-0.02777777777777779,0.0,108,0.006953885364811188,6.129925435083815,649.4766676020588,0.0,0.0,0.0,0.0056333837237721035,6.311212294107243,679.5040511099579,0.0,0.0,0.0,0.006983193100610988,6.1041987750107625,702.1437401408772,0.0,0.0,0.0,,,,,-0.0013205016410390846,0.18128685902342756,30.027383507899117,128,51,0.3984375,41,32.03125,10,67,52.34375,0.803921568627451,0.19607843137254902,10.0,4.0,32.0,13.765899897936205,10.0,35.0,35.0,48.0,,,3.0,128.0,77.0,2.0,60.0,46.875,,0.0,0.0,3.0,2.0,1.0,"[100.0, 28.57142857142857, 80.0]"
EmfmKFDgWJdW47a6CNTNjnbYaPh2,61.319999993840725,0.6083346832809176,0.0,0.008333333333333333,0.0,0.0,725.705932203996,659.6000000238419,409.66999999284747,475.625,0.0,1.0,1.0,0.0,114,1639.5043478271236,1654.100000023842,1053.530434789865,979.2000000476836,0.9583333333333334,1.0,0.9583333333333334,0.0,0.0,0.8696924668087276,1523.4954545389521,1595.8499999642372,1027.5999999859116,953.5999999642372,0.9565217391304348,1.0,0.9565217391304348,0.041666666666666664,0.0,0.7610098803618871,1349.3952380759376,1302.0999999046326,1087.7380952437718,1148.2000000476835,0.9565217391304348,0.9565217391304348,0.9130434782608695,0.041666666666666664,0.0,0.8187050579849577,1160.766666650772,1036.2999999523165,1130.0958333263795,981.8500000238421,1.0,1.0,1.0,0.0,0.0,0.8762196034237146,774.2875000089407,750.6500000357628,979.5333333363136,880.1999999284744,1.0,1.0,1.0,0.0,0.0,0.38843995145362775,198.8666666713026,68.11944444974267,130.74722222155992,68.11944444974267,198.8666666713026,68.11944444974267,130.74722222155992,68.11944444974267,0.0,0.0,108,0.008448146863921114,5.045698122561809,523.6815875960858,0.0,0.0,0.0,0.007260230850380749,5.871273193493251,619.7675548141935,0.0,0.0,0.0,0.007802594760142109,5.463156819083198,541.7720416002701,0.0,0.0,0.0,,,,,-0.0011879160135403648,0.8255750709314418,96.08596721810773,83,11,0.13253012048192772,9,10.843373493975903,2,23,27.710843373493976,0.8181818181818182,0.18181818181818182,10.0,6.0,13.833333333333334,6.413960468297953,10.0,11.0,10.0,28.0,11.0,13.0,6.0,83.0,72.0,0.0,70.0,84.33734939759037,,-17.216117216117198,-6.999999999999998,3.0,2.0,1.0,"[100.0, 90.9090909090909, 100.0, 71.42857142857143, 90.9090909090909, 76.92307692307693]"
EoToosG69XMp4LTYdB6sB9WTrv22,114.62500007947278,0.6883544629664246,0.0,0.0,0.0,0.0,610.1683333277741,496.3000001908513,312.7599997520447,388.375,0.0,1.0,1.0,0.0,120,1251.5999999841054,1207.0500001907349,867.4208333889643,791.7500002384186,1.0,1.0,1.0,0.0,0.0,0.914828462177952,990.7041666507721,935.5500001907349,725.3291666905085,682.5499999523163,1.0,1.0,1.0,0.0,0.0,0.844438398809494,928.1041666269302,932.75,771.3875000278155,729.6500000953674,1.0,1.0,1.0,0.0,0.0,0.7146812217212825,847.491666674614,771.4500000476837,874.7124999960264,781.5499999523163,1.0,1.0,1.0,0.0,0.0,0.7889651705082984,592.4541666507721,571.4500000476837,681.7499999602636,674.0499997138977,1.0,1.0,1.0,0.0,0.0,0.023679619653935544,65.21666671170135,36.847222208976746,28.369444502724605,36.847222208976746,65.21666671170135,39.38317458667461,25.833492125026737,39.38317458667461,0.0,-0.02777777777777779,108,0.008995732359860795,4.738557914485667,437.24906293360357,0.0,0.0,0.0,0.00870426398538695,4.897231844298001,485.02977532160446,0.0,0.0,0.0,0.010272371889742574,3.461078025260738,573.5880954264258,0.0,0.0,0.0,,,,,-0.0002914683744738456,0.15867392981233408,47.78071238800089,65,3,0.046153846153846156,1,1.5384615384615385,2,14,21.53846153846154,0.3333333333333333,0.6666666666666666,12.0,6.0,10.833333333333334,1.2133516482134197,12.0,13.0,10.0,10.0,10.0,10.0,6.0,65.0,62.0,0.0,60.0,92.3076923076923,,13.247863247863236,1.666666666666666,5.0,4.0,1.0,"[83.33333333333334, 76.92307692307693, 100.0, 100.0, 100.0, 100.0]"
