participant_id,prp_t2_rt_slope,prp_t2_rt_slope_short,prp_t2_rt_slope_long,prp_bottleneck_slope_block_change,prp_t2_rt_lag1,prp_t2_rt_dfa_alpha,stroop_cong_slope,stroop_incong_slope,stroop_neutral_slope,stroop_interference_slope,stroop_rt_lag1,stroop_rt_dfa_alpha,wcst_rt_slope_overall,wcst_rt_slope_correct,wcst_rt_slope_within_category,wcst_acc_slope_within_category,wcst_delta_trials_first3_last3,wcst_learning_slope_trials,wcst_block_pe_slope,wcst_rt_lag1,wcst_rt_dfa_alpha,wcst_category_total_rt_slope,wcst_delta_clr_percent_first3_last3,wcst_learning_slope_clr_percent
06qcrpGKL6Vc3LVplFQC90VAcRm1,-0.09631236078526101,-0.0029236323370062734,0.17655895159856533,0.01599821095170512,0.08679159582727043,0.6292820828684125,-2.3739788640421073,-1.1572030866808978,-3.4823933416006043,33.262515153800386,0.028804489822304977,0.6103390522337895,-7.715548372323597,-5.207497345617261,-50.01677059809189,0.05365424049634577,-2.0,0.799999999999999,-0.0050000000000000105,0.1273794179010029,0.9123339495761636,-471.2999999944658,-4.135309135309143,2.271775843204421
0ZtXlQtAJkW6jS21vfMOtNL4OnL2,0.8313889974611982,1.8672803808320584,1.0107836131765593,-0.028966087820193574,0.1317278744416372,0.5774677018372129,-0.4681674192495992,-1.0708666693263387,-1.9136449518017309,-21.253055555587842,0.10609541692083396,0.5048017166898988,-3.571515326777695,-4.435537427144748,-112.55130853622869,0.03996656937833409,2.333333333333334,-0.3142857142857135,-1.9137208000200536e-17,0.3243845999581843,0.4728955358507945,-605.4428571427636,-4.417020887609127,-0.41793500617029866
0d841i8KPjdjwCYfDuUUXj0SEjH2,-0.12170214395079226,-2.913032515344737,-0.4997660099245068,0.01589797162931748,0.06016935666101154,0.7901966380217822,-0.3441066277600351,0.2802511462581984,-4.158941903799659,32.00078566653394,-0.06605049979120196,0.5811022320542216,-4.704523415457581,-4.337152043104189,-174.03167497607046,0.04811854811854815,1.333333333333334,-0.4000000000000005,-7.160775637723287e-18,0.21974715609351142,0.6925909600191007,-715.2571424756736,-10.217560217560205,2.9070929070929066
0oa5NYVnIBS9NmrmRAZrahXDctP2,-1.1545903824819626,-0.255661446554176,-0.07663027266267622,0.035292503472987714,0.2133131685415987,0.6825129239158407,1.3680229835167577,0.6055882637473292,1.2241469240250837,-2.9791269841080483,0.0787848229889771,0.5480185219072209,-2.902577336177761,-2.8322773138624315,-48.403906093881936,0.05444555444555446,0.3333333333333339,-0.20000000000000007,-0.02500000000000002,0.11090117367474532,0.7535338340822909,-290.2485714307851,-2.525252525252526,1.4485514485514492
146QT9LupyU2BAiTsB3PMIpVXM22,-2.968031070506516,-5.349739426787963,-0.8542917795384082,0.08930804772877361,0.17967050525109707,0.5779175960371467,-1.106282992477986,-1.1103397718638863,-3.4856625038304103,-15.752663420731913,0.12214140117936799,0.6786219334569478,-1.995367790079482,-2.2143637649759382,-40.41460320728586,0.03493859082094377,-3.666666666666666,1.171428571428572,-1.2764912831261693e-17,0.23033586115265195,0.7893037646779502,1209.1628571476253,14.62842712842712,-3.795609152752019
1Vb7DcXYw9R86bw5qj9eBk9fPqA2,-1.8849020155741194,-0.8548708267720445,-2.6092754216103446,-0.04490066349225169,0.18447316061274344,0.6966325184221734,-2.2357057564266216,-3.67841632252543,-3.105801005308697,9.489094156050092,0.08518325287130195,0.5755202032709702,-1.536901171954289,-1.3587542270273394,-174.3033977135522,0.05569430569430572,-1.0,0.14285714285714357,0.024999999999999988,0.184510044187101,0.6650462417335141,1024.9999999931892,7.187257187257188,-1.0489510489510503
1dpmVw8fpcc2IHs0s9WqdU8Yvi53,-6.844456559463509,-8.214081862784274,-2.90366681821174,0.17393289219340677,0.0007328473142432077,0.5236278456394718,-0.8096908079766824,-2.7706876282820025,-1.9709187460283337,-91.47995275099079,0.150966104449357,0.7036922302445359,-8.85749648926006,-10.633213262165734,-94.2382876070261,0.05437062937062939,0.6666666666666679,-0.34285714285714347,-5.326600728850499e-18,0.25419815464223283,0.8260522686976705,-1162.9199999604912,-3.0303030303030454,1.7316017316017385
1fbLQPCcysVlSKup96K4yI5NX6G3,-3.6132614100680436,-4.759419226037542,-3.2721080390888364,0.04378733437621649,0.16660307059123305,0.973803058705917,-4.690346690999873,-2.8913603049545697,-2.25206302912385,32.554972225957506,0.12572825325520776,0.8421073351015281,-11.258018792484352,-8.762760969958459,-93.3777685790862,0.06500956903433684,3.666666666666666,-0.5428571428571425,-0.005000000000000002,0.49894696243223075,0.7866492276637876,-2867.479999944142,-5.291005291005291,1.360544217687078
1tT7dcLvf0bMGBdBWWYd8YkdJwr1,3.009311947556118,3.0295339286189527,-1.8707531805569984,-0.18468646225171054,0.06312830158570326,0.5730439058925891,2.339959979078228,2.2886715230844805,2.7851795028878117,22.263519483649866,0.07178884054351613,0.5078702884530518,-8.196985492574994,-9.18638966068138,-61.50573667306599,0.032437932437932436,-4.000000000000002,1.9428571428571424,0.024999999999999984,0.22517698633315966,0.7419647567125468,2010.0228571244643,-3.7037037037037095,0.20202020202020865
1upUBO9zBnhHcpJ1WoAnaBXWKRV2,-0.9050131859121247,-0.9214554032690345,-3.0209628796125845,-0.034448883986364275,-0.0019390411039462837,0.576327768823337,-2.378995121521865,0.44879851409137145,-2.2209571200438645,82.38022835392135,0.2387043352132759,0.7825966414686267,1.8616834142182415,1.1123239468054207,-52.2303020466973,0.051184699363563936,,-8.199999999999998,0.017142857142857147,0.24446164974810958,0.6395665992448983,-11082.420000016684,0.0,-10.41666666666669
23hG7h2ByUZDbmOMTDtp0HT0xRb2,-5.444775850291961,-4.630306285361719,-5.675597717654026,0.013788727099900842,0.37201341058879084,0.7994068860918061,-5.508371801327251,-3.357092702074398,-4.219239968235916,24.56987014869593,0.0456367883271936,0.5452240167241554,-19.40465287979495,-22.168586076470074,-71.42610621052224,0.04335404853275293,,-14.499999999999996,0.024285714285714282,0.13308612847856152,0.6873467860317655,-38669.0600001812,-18.495077355836855,17.5011845935152
28nQWMwCaSNFBEXlicY3eHqpwKU2,3.296896225086043,2.368127144098894,1.8723574242116336,-0.05129670195366477,0.1251861279877702,0.6596820592938739,-0.9133272316380893,0.9769245382925286,0.40153440450526484,-38.02447087933693,0.04347504480323318,0.6493134279538354,-12.568036526033243,-11.127250054127744,-15.871318810105505,0.04145728450816621,5.333333333333332,-1.6571428571428557,0.04,0.15108783040481977,0.8919688768014655,-5395.6828572545755,-4.948594079028879,0.5887349365610254
2FHuv7L9nWPdbIiWHRIuXtcoyw83,-2.439231448730392,-0.42064412562416753,-5.192080434880526,-0.09686384119577052,0.08529919220679585,0.5541588463016104,0.574339366953823,0.4573148934047015,3.7684035757279175,24.471547619052046,0.010249033218165041,0.6110774860588276,-0.8358148893361781,-1.4724911978668598,-58.07472527472432,0.049900099900099915,-0.3333333333333339,-0.08571428571428531,-0.05000000000000001,0.022182808902064952,0.6498132952972618,-24.17142857144822,1.8315018315018534,0.6422149279292139
2h5FgHUEvBS1twD5DqbTIRrMm1f2,-2.2878808185289348,-3.3741663946386073,-2.3496745661493814,0.03362657248239598,-0.09003586244969664,0.7192283377357679,-4.363188120144913,-4.785698292346756,-4.734186517322843,-12.040972234308756,0.08042940789152027,0.8002662873537166,0.21778213863251752,-2.8350577867579037,-146.81444159586505,0.04520190994649199,-3.666666666666666,1.8571428571428565,-0.019999999999999983,0.15785813818591587,0.7998113215589893,4126.048571455476,-1.2142178808845472,-0.7424850281993192
2zDXvJKvjeejeOSNbtDbtSI5cdz1,0.8406342064508914,0.29232833211916953,1.3768421306889238,0.04930086347717419,0.13331854761179016,0.6439415211663854,-0.9744437024050087,-0.38648261126089206,-1.3005265516113458,12.524972222234277,0.22533397321950155,0.46399368886298725,-8.886368209258055,-12.007051058279009,-48.5624442224777,0.05194805194805196,-0.3333333333333339,0.14285714285714302,0.02499999999999999,0.01859107644404652,0.6918804715214822,-864.8657142859486,2.1367521367521363,-0.9157509157509188
3FSnTCSiUodLp5u3bE0xaUjLk0b2,-3.0227199681721513,-2.464314066008918,-0.9790802800635661,0.02282904416030112,0.021916995188143714,0.65662348796772,-1.7188027887534014,-1.925165213722997,-2.7459791806533134,8.64050108225579,0.07517167482914144,0.5989531515564297,-4.254412073379851,-1.8493559191069662,-75.75497655423108,0.04373981711443012,-4.666666666666666,0.6857142857142854,0.03,0.1554558114919637,0.6171194810265119,588.0571428573035,8.703703703703724,-1.9004329004329021
3WijiOiVCoMbn80F05SPYsxl0TC2,-0.38586514237004443,-0.48184797591399664,0.33905035591766636,0.020826870036330096,0.09045751566367602,0.5520202891102963,-0.7090212031721438,-0.009872546277743316,0.201418823527476,23.830914509994333,0.04123726193854105,0.6507426855110473,-16.852386310562466,-11.427428051681401,-103.4234669499943,0.06522986817104465,-0.6666666666666661,0.05714285714285745,0.0050000000000000365,0.4547654617994794,1.106206090443599,-2474.4514286075328,2.9761904761904674,-0.08503401360544263
3rlzYufVjVVLv3ZFLcpfZUtXEEi1,1.6359931808470038,2.7586442548190973,0.6893057727948593,-0.059251395748218916,0.04028207960423058,0.6883122175601334,-0.6203919535979762,3.4046800301653337,-2.2604374100458284,84.26181312430987,-0.0029342458885104985,0.5225835232944415,-4.088410147559054,-3.3501119791362566,4.574129982276117,0.02271640016398768,,-5.599999999999997,0.06857142857142857,0.20377380998990172,0.838748358581641,-10194.810000228881,6.744704570791541,-6.927376970855226
3xCaqfcHxRQxuOlEzXz3PNcHODH2,-2.3383124345148176,-4.101649353662824,-1.3360932948086128,0.08967825751143067,0.21611240022180758,0.7289384848520355,-0.82324343590342,0.28015876650391597,-3.9238839809393773,38.44355844162161,0.1904611526121214,0.6381266812424946,-13.78029959810596,-12.574067220319497,-69.60133444178875,0.020908748114630477,2.333333333333332,-0.7142857142857144,-0.07500000000000004,0.2123292766720125,0.6737254867932,-2534.725714287588,-8.775252525252498,3.208874458874459
4ySuGdFDDmaAr6JUXbD4UIY6BQ13,-0.8549574609360625,-1.8234939923821494,1.4653655820856504,0.0727931651108579,-0.03238451891671929,0.6169820090054936,-0.39221934100142,-1.6109873073519834,-2.6376257290020577,-20.923838383829136,0.10124315695613995,0.5554355349404538,-12.092860330209893,-9.543334141938441,-103.3255042421331,0.037694551824986613,-3.333333333333334,1.6571428571428564,-0.004999999999999985,0.30525905224371763,0.8433157243991374,240.15714285708947,-1.2014555492816186,-0.845634696566378
50R0P1MIMvRvK1qpqfGROchII6R2,-4.8599554074882025,-5.888404716928502,-2.865296599533014,0.09389459498664,0.258818417290778,0.7930215774297534,-1.890386131538819,-3.6420788789419625,1.1482277422307683,-17.731194436947476,0.13973936176914792,0.6671438321056876,-3.245458421190786,-4.185849084441005,-17.362698214845626,0.023011038428084205,,-4.6000000000000005,0.041428571428571453,0.09556291890110546,0.4626023861382156,-6911.5399999141755,13.10483870967741,-8.413851694055596
5OOi73igsahMZ5IVKQwwyhnj4Cn2,-5.015963261336818,-5.043623862573948,-4.571386564457092,0.036719933507427575,0.10584128161233311,0.6043680878164847,-1.593669068058729,-1.655858751993482,0.689008871821883,-12.069772727322732,0.016748580662687782,0.5760283481798337,-4.229308022044708,-1.664363280577185,-94.1930362448075,0.030488710635769477,-2.0,0.057142857142857745,-0.025000000000000012,-0.07267974064649456,0.7488547213646602,-63.0599999999236,10.695187165775394,0.122230710466005
5Z68AKm9rIeeB2lVu3nJO7U31wk1,-4.405713439104581,-3.055338427619054,-1.3232952356505772,0.032663578374041116,0.04744748069255271,0.6494694187739868,-0.226879579666784,-1.3200739346314523,0.819283786406717,-33.6950238095474,0.05710701873757147,0.462950414964795,-1.0136119703818445,-1.5805155747952584,-0.6395275152886579,0.020054904373568223,,5.399999999999999,0.04142857142857145,0.33669476944084054,0.8867153726746363,5488.5199999980605,0.0,-10.64814814814816
5rXSa3anB5ejmFrnwUsTB82byup1,-3.4632569078877244,-2.147079941251789,-4.331852106208346,-0.05071564038452025,0.22803505132258667,0.6890580453631422,-2.323340386395201,1.4272252207030804,-3.7861689364048647,104.95638419911853,0.2121777924140111,0.7640607951678502,-6.2720930232553265,-6.13355845542807,-33.14829462118538,0.03540189600561119,-1.0,0.9999999999999994,0.034999999999999996,0.41745264335047433,0.9884902020776355,-191.44285714272513,6.0784313725490335,-2.1114179937709348
5zxa5CMLGQSSonWOXqXf0QNS3PH3,-2.790556731818988,-4.172468461143667,-3.1232093280124005,0.04431081625122804,0.030727130360156216,0.7523323115589363,0.2634169891154733,-1.3769467601903402,-0.7915209077787421,-39.90537660543792,-0.026206325151306862,0.7226013219690294,-4.5159149008194515,-4.552227957434124,-56.797210215446036,0.04581412739307478,-4.333333333333334,1.3999999999999997,0.024999999999999984,0.2076993863592444,0.7112365742248127,1259.0857144628246,6.744133059922547,-1.9060638609510783
62fAfeQc27bZelkPX7G54T3gvci2,-0.5723945057332334,0.9182631447152404,-1.0412262733469808,-0.041649906790133,0.19852009437565687,0.6103395549089261,0.7134939750634045,-0.24165179236920376,3.549842360361372,-24.145081168806318,0.12886077792026937,0.6283096365556273,-4.91647322855056,-0.13831599540008765,-192.5356321456358,0.04861804861804864,0.0,-0.11428571428571421,0.049999999999999996,0.14809702714170747,0.6882253541168418,-167.76571428576298,0.0,0.7992007992008048
6ABZuv4jbjgE0B8TeyUk6nwVb122,0.27099996465573545,-0.6267325418957215,-0.16697087181848264,-0.006673783390711491,-0.014933925370688517,0.583408385936319,1.1462503689199965,1.821807795737477,-0.38888095465751354,19.99041673279943,-0.028787713314221773,0.5101093973482345,-7.782354443055048,-8.124992536987394,-79.3185524081575,0.030561844069908597,6.666666666666666,-1.5428571428571412,0.015000000000000008,-0.009901290879719355,0.4906255140020315,-4290.842857183728,-1.452490162167578,-0.9451838484096522
6OwhwWQDThSPHTVAeXugohrYuje2,-4.719784886817147,-6.6626350600718265,-6.524870670836477,-0.04826193811415023,0.07599504574588434,0.8044926485147424,-1.7246886458069133,1.6817708161349056,2.314500571986666,102.0077868001457,0.01307534746734413,0.44427952413366756,-12.55791264180809,-11.74737457144515,-12.55791264180809,-0.002280374473539644,,,0.0,0.22108099836230796,0.6478718273091063,,,
6WFCyGwk71XLPBmbe4Vav3eotVm1,-0.17303792947971094,0.19706615851195847,-0.4394638009449847,-0.011532508622812913,0.2931334911619887,0.7272954492594204,-0.696925857825276,-1.0955562615214465,-0.7614202246795647,-14.16325003385544,-0.030664093276906196,0.5817114998797164,-5.614833759677882,-6.952544375182485,-126.29893147173236,0.031110556110556117,1.6666666666666679,-0.20000000000000026,-0.02500000000000001,0.23254183672950923,0.7719432545229111,-598.0914286068509,-10.606060606060609,1.3419913419913432
7cvQFrzIDEVAkFCcGAHZPUvJ2MF3,-1.240326516490482,-2.121481534313229,-1.572728500762112,0.0739195671772013,-0.02211461377943372,0.6185356282289041,-1.869259375477903,1.3272834243062477,-1.3582697126143708,82.84786580756891,0.21401498842326147,0.6066030863856597,-8.464553657194054,-4.296970936500529,-46.557404895763995,0.04882494956024369,1.333333333333334,-0.4000000000000001,0.024999999999999984,0.19392537601622578,0.9867482331589825,-1847.6142857824068,-6.944444444444457,1.8106893106893107
80UJMJbCOMgs6YVpsMgXfYTzw6o2,-2.6035291323828407,-3.6790492638801866,-0.46751583322523327,0.07617903178302939,0.33810549664616335,0.8077556403088204,-2.0074134092398754,-1.6486157478313468,-1.6194611531094034,2.9221688311992002,0.04075880666006497,0.6888546076162015,-21.231488933607398,-10.333607258217336,-91.2676923076696,0.05744255744255746,1.0,-0.37142857142857144,-5.326600728850499e-18,0.40970952100587166,0.8809662748941411,-3103.345714286556,-7.187257187257174,2.647352647352642
87w5Le0CgZhSfYAaOH3Xd2fc98l1,-1.8089457794090857,-0.5745998657156974,-1.3642739288467582,0.09587076123794147,-0.0843030280095912,0.525645232565045,0.509871793024105,-1.4587164546541438,-3.569215973589405,-68.80279653666034,-0.05547964245680012,0.47328590602052506,-23.88570778127105,-11.484918498313558,-45.656349095681605,0.040993314909329795,16.666666666666668,-5.942857142857143,0.02571428571428572,-0.0377318039996957,0.4386193227344993,-20675.317142857934,-26.637402452619845,12.857441471571912
8bwaafIhKVMNBoHaXFcY8HirS9u2,-0.6401556541563922,-1.0362701930386526,-0.9620184999570938,-0.0104587944727905,-0.017675812214444413,0.5597000163422372,-2.649831461852119,-2.839780908065283,0.27902957250673593,3.7678610997067854,0.13813625023804366,0.6759377184390661,-10.46903712374187,-7.291969941887498,-105.62090995609834,0.030457368718238297,-3.333333333333334,0.8571428571428575,0.015000000000000008,0.2731925127642956,0.6218435857193763,-526.4914285251066,-5.167055167055167,1.481851481851483
8cOQBMgQEYSlJ4CK60pFMmBVEBV2,-1.7515760934832925,-2.996225029916679,-3.765469914565922,-0.030385727623685396,0.05725650570126917,0.734910660280955,-4.718342022931495,-6.050616614802119,-2.736326695459336,-38.2240278429455,0.0014291492207230215,0.6619101210315702,-23.000812644447343,-16.49312495570038,-64.84100787177887,0.04097111991848834,8.666666666666668,-3.657142857142858,0.02500000000000001,0.08416936451824282,0.6985695895866705,-12282.485713822502,-19.394348341716764,7.8123630755209765
9NTZ091xWyOO8DgzyTGY0O3i8IR2,0.08817798605390144,-0.03769255140696482,-0.11168660471069994,-0.002327258987539268,0.006029447894984227,0.6286010185321306,2.131690405966017,0.1456747655816283,1.3242494981418165,-47.81166666669927,-0.025240731292912807,0.562720600311274,-2.1335196687405427,-0.68816173785632,-14.925495035087463,0.03481888058547098,-1.0,0.37142857142857205,0.04499999999999999,0.07250139932867365,0.5752089713368242,24.631428570621058,5.968210533427921,-2.333883507796553
9Xz1RIwnPXgyRqmucudW9VeuDnq1,-0.9884081349751438,-3.577238073672162,1.476746555503557,0.14729994582432143,-0.04066746021234219,0.5743573731113031,-2.119931016765596,-4.128507620934242,-0.8557741368555899,-10.412579365065742,0.3781929451164431,0.6883625306215649,-5.00995975855166,-4.695965390406015,-33.23481518481974,0.0537795537795538,1.0,-0.257142857142857,-1.9137208000200536e-17,-0.10639166380568903,0.5762944844669815,-910.0571428571692,-7.187257187257174,1.7815517815517843
A9AEg0g6c2P1Bk72HLmnK3oWJ9B2,-3.534928078225878,-2.0776242696245006,-2.973893173777211,-0.0178513850001044,0.14665284046436572,0.7617497283338933,-3.184236496763291,-6.061623003706996,-4.268125843166614,-73.698555571172,-0.08304548052707662,0.5182972409404926,-23.68824893069246,-20.30014466166106,-66.27258552768461,0.05393519523954308,3.333333333333334,-1.2571428571428578,0.045000000000000005,0.1271998837439095,0.8930863660995647,-5862.742857170107,-12.62626262626263,4.245754245754255
ASGvwW80q7VY7xFaLGZhVuErUQu2,-3.784146270922547,-0.5095086114695125,-1.3869544968918273,-0.03978427303211236,0.0254359441536784,0.4694379084039364,-0.6320635628684993,-1.0304779929383774,1.0658044550369385,3.2220634621803366,0.03609411138495194,0.5934338914778347,-9.371034919807622,-10.473455557525206,-92.78171051428495,0.03573093573093574,2.0,-0.3999999999999987,-0.004999999999999998,0.2472645556231962,0.4658966498602194,-1996.9285699571865,6.51015651015652,-2.6264211978497696
AUKCfn4HzgVB7m6LNnh2gQb7G5s2,-4.667233646045005,-5.962233837721829,-2.936897933658888,0.028644616230350146,0.03277377305829966,0.6359271155643899,-2.583493649934181,-1.2629265005635515,-0.0815400951366924,30.698305537965553,-0.003583228380979126,0.6573444240461284,-14.834803457538289,-11.30657878392908,-84.57336061817183,0.051781087849199305,2.666666666666666,-0.9714285714285718,0.025000000000000012,0.2015995320351345,0.8907083933455158,-4669.262856973922,-23.90350877192983,7.098997493734338
AsXBOflrszVNKoFqbN61bMJqS0k2,-0.3411790549802238,2.3951836381854172,-1.3932304845225012,-0.08083752046367478,0.15576651460881952,0.5944768216027321,-0.797949825143002,-0.28400118985481393,0.47916016283472523,26.379857146687886,0.009292609390025368,0.44832278318502167,-4.367285921428811,-5.522858233235877,-65.01737649072423,0.03149534933590662,5.666666666666666,0.08571428571428605,-6.4440437520460744e-18,0.20632218479331266,0.8007448141720486,-758.7342856747765,5.622895622895626,-4.736270265682029
BbwUTWswjtPWhb5DvLAmh9Hdpyl2,0.22608506863600028,4.368181910442756,1.329901313251182,-0.011882007417942956,0.13307608252615633,0.57960650674092,0.5903061544875929,-0.39748135342494284,0.47304729688410974,-58.522737012959546,0.05522788799977133,0.6801394303534622,-26.324665099272675,-25.418782974370572,-27.150122793427116,0.0034735658042744657,,-123.9999999999999,0.0,0.1811297558714289,0.6726615149858867,,,
BcCTlXWx6ARh4rBtkdWRgZH3C7H2,-0.3661402630135656,0.09765106788475528,-1.405165154266884,0.013664509545071387,0.011096724610780767,0.6781316516613561,-1.2387360333336395,0.7697651755747869,-1.70108897375291,71.46217856758605,-0.008629523171529417,0.6959593289072448,-0.6729191863779368,2.2995275728069937,-13.222449217904929,0.04487179487179487,-0.3333333333333339,-0.14285714285714188,0.024999999999999984,0.09344161909001611,0.7235491001349177,-236.68000004632069,1.1377511377511524,1.1869083297654692
C4HWhqUIJ3Rl6SboyJGqlrXFAJJ2,-0.35721415840084103,-0.1677611458915746,-1.1416856207029569,-0.038083129543908176,0.12083939360475926,0.6414448900937,-0.18317631160271372,0.7293128276852932,-2.390307376342945,-13.44390476773312,0.13170786090017916,0.515229991844852,-7.267574382542334,-7.575869742952429,-54.01909548683179,0.03634468023214827,3.0,-1.4571428571428566,0.035,0.1651478877610697,0.6678012228632256,-3764.3199998855594,-1.1999075724565813,-0.32785297491180015
CDEoAyvS8feXLKMKsaZah9agEhF3,-4.794514816304701,-2.513067002275355,-2.195797653008663,0.005978309756206827,0.023348908494891615,0.5567885831719801,-0.6365539053257218,-0.6815783075799747,-0.7064699533727099,-25.861833333362927,0.19352220370794798,0.7393655164845101,-5.576616693704486,-5.855045463543427,-79.45849816850195,0.03712953712953714,-1.333333333333334,0.5142857142857143,0.049999999999999996,0.3406508860708984,0.9303164200519334,530.3771428573352,10.217560217560205,-3.946053946053945
CGyTPhevTbSvVnZ8qSP0NtWuhgw1,-2.2398045003120273,-3.379812976892548,0.3930659265598323,0.11469794109147415,0.23269447963227993,0.7764712336666587,-4.627037307004844,-2.1402389054820397,-3.597761945927184,98.11810607582458,0.1185662975908475,0.6982076171414163,-2.4479178498123604,-1.215835857324218,-58.006443553870064,0.05234357575688845,-2.333333333333332,0.6571428571428565,0.019999999999999987,0.16791474316676736,0.5830467391751298,902.2885714122237,2.111022505759351,0.763081947292475
CN1ySCsiSLN4m9yh9fS4s5p6T8k1,-1.3858568916454168,-2.893403417355403,1.3430476399402898,0.09979996536460375,-0.10230506697374275,0.49659036060529294,-2.625047628412315,-7.035831114492761,-0.7154181735367835,-119.0098888889008,0.25015334777495013,0.8189168451612195,-16.992502258355454,-8.607206293095553,-98.80182364033077,0.05997863505603446,-1.0,-0.31428571428571406,0.005000000000000004,0.4066654682477427,0.9203546328468344,-3091.657142857033,4.451566951566946,1.6996891996891965
CUNlBEszJVRGK1jWlTaOaCqpDg53,-6.466373511021076,-5.580857009087498,-4.805448589815714,0.04311889787182842,-0.03953995953723265,0.5343940119752099,-2.336276894387074,-2.6763602489927485,-4.756908988925516,-33.32527777769915,0.04733040838394657,0.5157445379972856,-13.48817088174728,-14.276724724543012,-82.25881257628927,0.053321678321678334,-2.0,0.5142857142857151,-3.55501481558238e-17,0.09458029469902589,0.771154232276955,-1130.0999999995731,6.581196581196593,-3.2014652014651994
Cbkx2NHyF3NrebzXGqNgSfiWent1,-0.9971338287411423,-1.130889539186217,-0.32607948998266867,0.003006539148603685,-0.05429908989474714,0.5323892913059424,0.863896788601321,-2.241764313136634,-0.019298689555203814,-64.5306666659026,0.09511841205398666,0.64554929533547,-2.939480214641465,-4.3215388145381315,-84.34296370294219,0.04720279720279722,-0.3333333333333339,0.08571428571428535,0.02499999999999999,-0.020078889156935592,0.55189363299673,3.3799999969354477,2.525252525252526,-0.6493506493506526
Co587hoelyeANqFX7AYvuVQW0lZ2,-0.10911482717070062,0.3720772459715353,0.32852663089359235,-0.015470916816377083,-0.017852446723827624,0.5298824604813598,-1.10663834869297,-0.9621920455948362,0.7581028094837371,-8.796373376250257,0.12741570163483118,0.6487952182805286,-2.556551408923917,-0.5655106501323777,-57.93523621250699,0.04668201363853539,3.333333333333334,-0.7999999999999996,0.005000000000000004,0.18537968358990806,0.6105146835179944,-1131.5914285727906,-0.8935508935509091,-0.2031302031302084
CtJe4bZZnYUBNrcPk00d3YQFSGp2,-0.2550135692782455,-1.0968573261108332,-0.15810926216191756,0.07875351898092792,0.06892282944741038,0.5753061629123049,-0.5385461371912286,-1.0640475180826108,0.1918384564987629,-12.457479520430217,-0.0047495712109909645,0.5693273026483688,-3.9614041256452723,-0.8184390699852865,-83.32553133140554,0.061941245029480334,0.0,-0.2285714285714283,-0.025,0.4807340573866703,0.6678023740472899,-658.2514285715848,-1.2973137973138051,1.5240711669283127
DAKDKPH698P12JfTbbjemLI6PIH2,-2.106449058954105,-0.7149323356387703,-1.3754514903059996,-0.03536987619123091,0.01994631304307308,0.659379900931629,-0.9626996223126622,-2.4328311514353667,-0.740929917672296,-31.628112557484624,0.0043797505569271354,0.7838158195749245,-24.041463276530077,-15.3601460248273,-72.79403330728542,0.04719563258565817,-3.333333333333334,0.5714285714285714,0.015000000000000008,0.42027965429984193,1.0471699025291443,-4143.351428563259,4.399766899766888,0.4920079920079947
DPvStUYSmohmXwFwaKRqHv89R3k1,-1.4201180889975686,-0.9883793109869071,-0.7740524470891402,0.016537305079511094,0.14757226520883998,0.7122433559857594,0.6478413706701286,2.6607079800802897,-0.2822804277602715,-15.412711530331036,0.22102000674118388,0.875629999280298,-6.507147657654902,-8.258991519261064,-166.47560606285782,0.022727272727272745,0.33333333333333215,0.02857142857142846,-7.160775637723287e-18,0.2771723641747197,0.8029226917578656,-195.15714287417148,-3.030303030303017,-0.25974025974025977
DaRehVxIOhXtEtUExdgvUl0mKcx2,-1.2274055342581687,1.7936262859484695,-6.514018359236711,-0.18490149524871408,0.10410429034721014,0.672494665701639,-4.39682549988952,-2.5915092225064216,-2.5641562211932603,46.26813852442881,-0.0828455688282292,0.7284768145188175,-8.531487549588242,-11.315407450416641,-112.16361036105098,0.05103610038011426,,-10.000000000000005,-0.018571428571428558,0.21909556500298905,0.7841687179773782,-19628.109999954682,-5.555555555555564,11.529516994633271
DxSidjznjVSNDJuDqqGgxpMEGtw1,-5.740531248987289,-6.097492759728252,-3.884808362450028,0.04808380639371027,-0.0685063829588723,0.6219200038965859,-1.858090395081683,-1.6589189729061593,0.3614978398871431,6.338332273544705,0.14732468825107084,0.6202367975473755,-6.826797829696938,-8.296378869941892,-64.2972469224777,0.03804528804528806,0.0,0.05714285714285763,0.02499999999999999,0.05249455145754222,0.5773087193151167,-350.4542857919417,0.8935508935508949,-0.7492507492507483
DzB19GqCB7fyrlEPexogWkjFzEx2,-8.334058189075417,-4.280269753719516,-5.854447677207644,-0.09051177163517916,0.12808467497033518,0.5337110051771552,1.2394179251204076,-1.1921365544583744,-0.619455870003093,-86.61282214532775,0.13265829261247733,0.7488180930560474,-11.071161149266647,-3.5150426211021437,-45.878951047207636,0.04976910344557404,0.3333333333333339,-0.48571428571428615,0.02499999999999998,0.3647477748808647,1.0073757485344235,-2475.094285774232,-9.523115773115762,3.520229770229774
EEodWwGh0wWq5f8JmzfKvq0lyeu1,2.4885309521769443,1.6369229169557205,3.57915625339523,0.09554565483135086,0.06925120975693078,0.4838245684531718,0.13449767205813143,3.54017020922341,0.5391662433175499,114.19325757575675,0.02401237722180834,0.5308207598999426,-7.827726532827784,-8.94709619811406,-101.72601028411488,0.03017747795645225,4.0,-0.057142857142856454,-0.02000000000000003,0.0665307153260442,0.78301998098001,-1396.285714285926,5.074462574462586,-2.6266511266511263
EUhcW9kURScie1DwGPHqmNqotJB2,1.2028123845091068,2.3007568005099848,-3.284769962076405,-0.11993831600473867,0.28038489240485115,0.8383149296594413,-1.2745330311527923,-2.829175054300348,1.5660087899843094,-19.34327886084113,-0.017355464324126473,0.565826131518729,-0.27123695301910417,2.8254788717027233,-62.39454767818745,0.014387457110503772,,11.399999999999999,0.00857142857142858,0.07020546371604583,0.619871033538772,24122.17999985218,0.0,-10.000000000000012
EmfmKFDgWJdW47a6CNTNjnbYaPh2,-2.732164153246323,-3.9134629231728373,-1.963494123793001,0.058530646225048846,0.18469353321261,0.7864131255084515,-0.24658551572597873,0.09502901376084386,-1.6428331027360323,27.757546885963126,0.08963504374243995,0.6931818874145992,-4.919405146718279,-8.17082362580682,-126.65421726960271,0.03171572999159208,-6.999999999999998,0.9428571428571436,0.03500000000000001,-0.1677991291776908,0.47867394705861027,1381.120000001364,17.216117216117198,-4.113029827315535
EoToosG69XMp4LTYdB6sB9WTrv22,-1.4347388709151971,-4.228610684775307,-0.13074373984723087,0.14051104752997245,0.006136750339695508,0.6914116307419454,-0.4027242570651644,0.27143412765987124,-1.1013256280497383,16.65859242754067,0.09881813079078482,0.6393892011892737,-12.009961080474744,-6.7162352882560645,-153.51928628663904,0.015318015318015334,1.666666666666666,-0.5428571428571433,-0.025000000000000005,0.2057547011575591,0.6554162355390075,-1527.8542856352663,-13.247863247863236,4.358974358974358
Fz7EUjZCLuUBxLDUVtN6djaBTy42,0.7661184607913489,1.1334912762472285,0.06280794753925714,-0.031872045508528186,0.2040255465243479,0.6500059037409687,0.38659790121524085,-0.8283583826086603,-0.16983836096165722,-30.08186255519528,0.052473943295447655,0.5822098588212115,-6.673057874121852,-1.3439506198207558,-24.85219359372988,0.054717942875837616,0.0,-0.2285714285714283,1.3074942392107423e-17,0.23725380384382072,0.6811048948421302,-1230.8628571612485,-12.158538629126852,4.160741219564754
G1Ff3XYUZMRsPafyEQ80ussnVlf1,0.4452519289827387,0.3931278165667309,-0.9601476888552599,-0.051752260110388276,0.29416603135702774,0.6525449627762724,0.6161512707021493,-2.9431808359756326,-1.0862394724043274,-89.07287226991745,0.0882319201882266,0.6101348143901777,-1.8877772498266085,-0.7072046133165454,-4.889525489454762,0.03648265466662773,20.0,-6.228571428571425,-0.005714285714285679,0.18111563767663022,0.7671746941578401,-11034.185714207371,-24.277389277389283,7.975524475524482
GDZGRW51kbWtAdUIHCtEd8sAtqY2,-3.1097950477506777,-4.680678302366097,-2.192462764339785,0.08570423849099369,0.10589464498737303,0.6475238267695919,-2.099739455404133,-3.014960589396682,1.2483897876300305,-10.184056261992037,0.07782474491733765,0.7414714918672526,-7.27172429591638,-5.5147278189182405,-39.40048978614005,0.06091277143908724,1.0,-0.7142857142857146,0.05000000000000002,0.12608366862758594,0.7202870865633287,-2208.7971428734913,4.106449106449105,0.05827505827505908
GE4hogtdLdTFbNasENgtm6SO3hC3,-0.18881650670373143,1.256725452217032,-1.3473016093723873,-0.04861881521825779,-0.047050614507978095,0.5088904650675283,0.781970708511569,-3.0300933700576254,-5.455975863341072,-78.97486111645897,0.14860754876865462,0.6684376828829931,-14.89461648960274,-9.095416135921775,-89.75625319104073,0.040542790542790565,-0.3333333333333339,-0.1999999999999999,-0.025000000000000012,0.41667154585260535,0.809197325249165,-1940.6371428396021,2.1367521367521363,1.7216117216117162
GEwkBw3YHaNp3TCh9YS9PKVfavz1,-2.5550672226022777,-2.9854699770620163,-2.5780821319293885,-0.029751710102919927,0.08744829884749244,0.6648992336616772,0.3357207315279041,-2.2659526240458367,0.7490306062396698,-69.53636110019357,-0.01849182990533089,0.5378041360740741,-16.001477470116022,-16.404001761967802,-97.04102748920678,0.044881245345641634,3.0,-1.1142857142857148,0.024999999999999988,0.023183033888534578,0.775944388436728,-3672.482857176236,-16.446516446516426,5.883005883005883
HSggdq91WiQp16bOj7V3dABkcgk2,-4.562556427580601,-5.562308115499084,-3.329013686222987,0.09699610992382311,-0.034059824796042484,0.6318875535177225,-1.3565302733293523,-3.9051856345942304,-1.3571679833517365,-78.62254258119654,-0.03681508498400877,0.743292183320198,-10.166579843381253,-7.538877378914983,-17.81814112330326,0.04047071779269923,-3.666666666666668,0.028571428571427995,0.024999999999999984,0.062142942222752615,0.6638803808681741,-1826.7685714415143,-2.7346292052174306,2.8334970351777056
HbydnnT1hUP3WagAy2TJAc6GqVs2,-2.70069738186772,-1.9946654517550664,-3.390688626824205,-0.044984260596191705,-0.029102642781369394,0.6283029516102332,-1.4788265068731574,-1.8078673217633032,-1.0310500405288094,-41.88750001132483,-0.00032359322643518934,0.6553240466627794,-0.0743036144262529,1.2426748454767766,-81.95307137109367,0.03046953046953049,0.3333333333333339,-0.31428571428571406,-0.025000000000000012,0.01782947229931233,0.6623107526234443,-228.78571413584967,-3.923853923853926,2.7605727605727592
HyQM2xKwwuVfqidmRYF6TiRk90C2,-0.7737754748459024,-0.01286278927200852,1.6714642788914749,0.0033479557708440697,0.17987401946006207,0.6215650678399706,-1.6252668503639907,-0.3153373405289247,-1.4500569102722287,36.311833332963296,0.03425383944924138,0.6227808501924261,-9.407417824558875,-8.69763054906818,-75.2922943722999,0.037545787545787544,-3.0,1.1714285714285704,-0.024999999999999994,0.41970854172720795,0.7643488020956801,-249.51142856351063,-0.09990009990011117,0.9609438180866733
IaTJhUGICmO9xcL3605RW8QHneN2,-4.944196294556607,-5.017346101278299,-3.892585986587987,0.06875373557636587,0.05042781968466722,0.5441250051499302,-1.0414773296848694,-1.8787406875061874,-4.509787556884281,-23.42666558368906,-0.02457064745011213,0.7274322225203161,-8.174363847728781,-6.785108827475106,-34.52883466825952,0.04726738150130764,12.0,-3.37142857142857,8.115848370489041e-18,0.20734105239635442,0.774705054399454,-6237.648571445257,-9.292048390885611,2.9413319238900653
JOBWLirr6KYf3GXJ3jPFKmd48S93,-0.1116608002728298,-0.5355274963254358,-0.34097397922753764,0.025561434682851453,0.1688643141642141,0.6452112847599081,-5.725390784242028,-2.4337486034027562,-3.9714555597376084,86.17594443889125,0.22050435205999092,0.856421155767856,-22.172697012962026,-18.050340317976843,-63.603968532259614,0.05706099456099458,2.333333333333332,-0.8285714285714287,-1.9096563013432522e-17,0.6057983510593882,1.3966202070180356,-4330.091428593229,-5.377302436125959,1.0058568882098287
Jp6aXC9KLjcFZBaQdZl4i9dUscl1,1.6857712654730126,-0.027513743538034485,-0.25402873187665126,0.004002861683235216,-0.01423020123722994,0.6236014852268472,1.9856218833899915,-0.16854793413539404,-0.15513949936872778,-55.030833330750454,0.029990752594710082,0.5348826484501662,1.6772631284212707,1.6772631284212707,-69.58616161533075,1.6054209807821417e-17,0.0,4.806354928642459e-16,0.0,0.013421935487762958,0.7962675892669842,369.2999999744557,0.0,7.735715910002038e-16
JvrZiMHtAfP6gvQtlevYWafKy0z2,-0.8213275208060249,-0.7518199992693765,0.11254163411585272,0.016979126590501565,0.15616584411609843,0.5879336358156573,-4.687965392433735,-1.3592062198445842,-1.1849814826950509,86.38734829498068,0.15982496087990142,0.6639160100568249,-1.4157354200751324,3.0966036165362407,-67.44955794591725,0.05884115884115886,1.0,-0.3714285714285711,-0.02500000000000002,0.353748995270677,0.958454893773256,-599.451428631373,-5.167055167055182,2.12787212787213
K26uNuY0VNPjJNF26wEx3bFg0kr2,-1.4942713000924115,-1.0779263115454227,0.20096657581041044,-0.005902975773663356,0.13609739126758855,0.6870756979525581,-3.8731365640685644,-3.0642549255273224,-1.5442730017180446,26.112058441561,0.02426566105851305,0.5474915707306335,-2.9266730819690685,-3.6411933047685654,-52.72505106004815,0.037912087912087916,-1.333333333333334,0.45714285714285796,0.075,0.13750278917556044,0.5407336262517589,257.18285714300043,9.523809523809518,-3.4013605442176864
K7ykiXe6CqQUKpEzs2nYrMTVuDA2,-1.430843656472432,-1.3005667647557086,-0.5791438842640255,-0.02738731918283519,0.0025939322499932485,0.5662856645004244,-1.6441196908502174,-2.2614471452797003,-1.2234213268498693,-29.323665223659116,-0.03379777397231731,0.7211978823137022,-28.581574965206453,-18.819524590320846,-84.04802891470774,0.05603338078310271,6.333333333333334,-2.657142857142858,0.03000000000000001,0.03545261032460187,0.5292639158551041,-10715.828571428658,-19.19191919191919,7.792207792207796
KtKj6zUKc5Oogd2itg2jdwkchnf2,-0.5114910359129118,-2.13037817520584,0.8752198698530222,0.06961134031587099,-0.04668438876025634,0.627368144668653,-1.8162636650125767,-2.1817907588832037,-1.5448114510331017,-7.356106060578541,0.1591844573170179,0.7541600386345653,-10.49902515396991,-10.820956728526507,-69.13033411037362,0.015734265734265732,2.0,-0.5142857142857138,-0.025000000000000005,0.2370455838252421,0.7971657190195913,-1656.3142857166258,-16.666666666666657,4.285714285714277
LSLmd8jENtONZFVkIpRDX665Bu73,0.32261960471018775,-2.3322357746035993,1.9419900263365533,0.20296250052563242,-0.05764157523594104,0.5356913159886696,0.46834320037965815,2.6260910685790746,1.823588887620442,50.45965369277534,0.2547040979376262,0.7918800440519782,-8.249866674870187,-5.301147247445958,-91.29508577549869,0.05155713851366026,-2.666666666666666,0.34285714285714336,0.015,-0.004892390708056289,0.8914865164632949,-522.8971428189949,5.050505050505038,-1.2987012987012965
Lhv9P8ZrkDSIB7BGwooAqfu8SGF3,0.06795867331895865,1.3121561822165944,-0.3180953362343043,-0.03733119696243977,-0.18491963329101752,0.617717578936802,-1.4052940982434554,-1.5721262345784006,-1.0790348424520595,-2.825269240393102,-0.05227201436486859,0.5899237403120353,-8.63446344759025,-8.597876733496932,-101.08410547943168,0.04447635697635699,-1.0,0.42857142857142794,0.02499999999999999,0.1668942213697765,0.6274988879147967,-272.8400000282712,5.555555555555557,-2.380952380952376
LliUMEIsrCVZ88YFQfevan2Og4z1,-3.353645939318489,-3.29567465816709,-1.5835798003215216,0.05408125898086834,0.0499864608166583,0.5747825055096203,-2.9639030208384876,-2.5484629823520932,-3.0386880668962917,-5.137822510838454,-0.009926423406661677,0.5520518691082126,-8.04471649484594,-7.008110618263024,-61.87841577539995,0.030072256175197362,3.666666666666666,-1.1142857142857128,-0.050000000000000024,0.18015922457306424,0.7573418200499192,-3049.225714285792,-4.884135472370758,0.9788642729819184
M4Km1Q2P2oPliChDQkwl6k20FUI3,-3.2201871705925087,-4.293587535714523,-3.688935592933704,0.0069598202294917505,0.07206450363719538,0.7820542287498233,0.13705039413783388,-0.8718952407220526,0.22176815887160348,-34.214858227498624,0.24472883867496345,0.7767891332655247,-14.97568929509265,-10.404759879121832,-88.34030838013639,0.040351770692327975,5.333333333333334,-1.1428571428571437,0.030000000000000002,0.1286397738267444,0.7485965512511124,-6249.29142894745,2.0903715021362217,-0.8546448882583312
O61Eik2zvrSQLMNpFbTNEgjWwMr2,3.999110514249072,2.914923966220565,1.3251805532237588,-0.04168595877060626,0.007725827518214129,0.6579212139126134,0.767223495933703,-0.347325127379041,-2.3783095255969813,-23.114166665592535,0.1544382596286546,0.7000175835821897,-7.958316367189332,-3.121925745818233,-40.81192432553622,0.042715617715617715,2.666666666666668,-0.6285714285714284,-1.4321551275446575e-17,0.468402758834923,1.2155577844600722,-2131.4542857172237,-16.405816405816424,3.6915465486894052
OExlWyngGfPrScDYjaRcv5PIAet1,0.16329955797927487,-4.607318100741656,0.8836820612440546,0.1513287608225862,0.18527248102400465,0.5885451056377925,-0.6734491529843051,-3.359984890165809,-2.042556923772508,-49.954576842469265,0.019200249341921903,0.5826048718907738,-14.423469365425715,-9.194473370605952,-170.03189144015434,0.026390276390276413,1.3333333333333321,-0.34285714285714397,-7.160775637723287e-18,0.2924359269934364,0.6598141618154295,-1701.1057141678675,-10.722610722610696,2.7572427572427562
ORvIk1xRWIQmKuLVe6GXNouvAXx2,1.718904091378634,1.0999586830251797,-1.3932264936086418,0.0033443571331499486,0.09561217622499571,0.6474025798310469,-1.4344226873039758,1.1103443052550663,0.6062869511851894,77.64259525263591,0.12666621549771084,0.7434299771048618,-5.833433545514132,-11.891261026631334,-65.71160513277952,0.03510227681589582,-8.999999999999998,1.9142857142857153,-7.614307478550969e-18,0.2162569043985054,0.8958654130475712,3378.134285753116,20.75977162933684,-4.532655750047064
P8mTl71XaYNvFMTCvlKpzzUdc9W2,-1.2937511125883099,-2.078025018911577,-4.129269359680014,-0.025698946621583334,0.04281247827364297,0.6550234157512248,-2.758991190776867,2.518548144268712,0.22242623616787535,132.63389284600106,0.110280163334251,0.630993033698295,-7.622180027968447,-8.61626435967261,-116.30160220549062,0.03839836633954281,-2.0,0.5714285714285723,0.015000000000000008,0.16823185618949069,0.6641319887386334,-176.98285711152357,12.5,-3.928571428571429
P9bS6GGJcIXivbMWo4ibJ5jgUPG2,-4.0242580060558835,-2.42663578606926,-1.9573089223021805,-0.04858680008025098,0.24676028973213837,0.7789374762043738,-2.386972387004177,-1.415582942552878,-1.6650845592196557,6.209992067764142,0.027430946914841076,0.5937413226124691,-6.056496927176189,-6.40094509114743,-93.81038350617165,0.04170829170829172,-0.6666666666666661,0.17142857142857165,0.024999999999999998,0.002079424748939846,0.336051686884199,-223.72285714660367,5.167055167055153,-1.4818514818514814
PLreonkqaMeFc0UqxKUelH44UQu1,-0.9695935873668488,-1.841967055169204,0.9975429233353227,0.11217733296200996,0.09063007958324018,0.6809909273656614,-2.0989506213762574,-1.5037430529151363,-0.0826831294772189,13.385472220504244,0.03335709315920008,0.5131684725270717,-22.570062456627664,-24.26186578748777,-142.30863319702672,0.05219551953422922,4.666666666666666,-1.3142857142857154,-0.045000000000000005,0.44660251142280133,1.3072478989714493,-6064.554285728929,-1.1453823953823985,0.9995361781076081
PkpTH7pWpEOG9A86xSloOSozwTk2,-6.006583522655235,-4.757227586867427,-6.7881516104839585,-0.06539652762367913,0.2657816706621736,0.9230131594571288,-2.41466990957583,-1.456944735057662,-2.4737118528280737,0.8158657569665323,-0.09174901316399256,0.5243820238311145,-1.0212300217040255,1.870842457546042,-42.70953941939219,0.010277768144640723,,5.0,0.06142857142857144,0.31630311743754436,0.8172820550978405,5602.049999833094,,
QG6VXg7od2fHJ1SF9ZzYBqUa1FY2,-0.24076929519153067,-3.0330970470602483,0.25485508028012777,0.12915889287085006,-0.031797127790049715,0.592809807404315,-0.9966343859720789,2.2847647904810717,1.417985897412482,107.71725324736161,0.1470030975475431,0.816649674925849,3.248114031819175,3.026233652401051,-42.61390942390819,0.04920079920079921,0.0,0.1142857142857144,-1.2764912831261693e-17,0.26755537729058587,0.5865132764951606,823.0771428538226,0.3885003885003897,-0.8991008991008991
QbOEVCaZLUMOgltUdXm58oZOALv2,-2.520928788792567,-1.8056721222003729,-2.558099841046713,-0.04062946699762308,0.03366096141142282,0.5527229395304057,1.0728665279756309,-1.5160609853494662,-0.21963133889143338,-23.605373009715322,0.07662327004823966,0.7271395633345685,-13.447735373523562,-11.916065742619955,-70.1643928395034,0.042222934070760165,-2.0000000000000018,-0.6285714285714288,0.019999999999999987,0.048259886780479704,0.7510623087938413,-4330.768571422782,8.372616301005053,1.2962631084662497
Qg9GDwQ9hBNkDLt50CNLd4NqRlX2,1.466833723411845,0.3329623293067623,6.875954558569926,0.0779674600128936,0.19296732980116213,0.6998648423888346,-1.1293451142553332,0.9509153214571253,1.7744380888197164,49.44258333007491,0.15804456258614857,0.7244350026710321,-21.61431544456064,-20.622977975615914,-100.81182400581378,0.04500499500499502,0.33333333333333215,0.028571428571428914,0.024999999999999988,0.039864930962680525,0.7134049715243871,-1932.0742857388086,-0.9379509379509443,-0.7111935683364305
QreA2rLiUhV3YHeMfuHMPdGbpJ53,1.3738545893760588,1.4433405584720764,0.5307368206847429,0.036763476427464525,-0.019808404962764453,0.5058593884726804,-2.246104270742501,2.0897233008389127,0.31574850025862067,97.23042856868994,0.14012568123513178,0.6152248679410428,-4.450450728207931,-0.29477243791120583,-4.6618125244366775,0.04446553446553447,-0.9999999999999982,-0.4285714285714282,0.05000000000000002,-0.04080504069481763,0.669650401605846,-1605.6514286586223,-11.291819291819294,6.176528233671093
Rc706mP0TSeIoIpMYH1SpRXjOxA2,-1.0176253972555236,-1.189720443198529,1.723852234890287,0.04017154993657496,0.18828940176386946,0.6547776404778282,-0.3035599320192384,2.1619068151785523,2.293147804189839,87.36558341847523,-0.1800710764886397,0.38531929070340687,-4.024253963158865,-2.945552590419878,-100.57770203580758,0.007575757575757591,0.3333333333333339,-0.08571428571428605,-0.025000000000000005,0.17992689850536517,1.0689836521278475,2.791428239005357,-3.0303030303030454,0.7792207792207848
Rmd4rr2vGjOoLvdfYd4EdYyxK3m1,-1.5312466142500292,-4.170320437231402,1.3971485460003739,0.1703414259194298,-0.08270742633567228,0.49137776775612807,-1.5616343796175707,-0.6524414951562661,-2.649145822804109,17.778995650482866,0.06308250726835431,0.594004695484385,-24.867466623489076,-17.589671819112564,-178.13999877313518,0.04584363005415638,2.333333333333332,-0.8285714285714284,0.010000000000000007,0.10835588500292959,0.6682824099138579,-4872.362857164656,1.025641025641022,1.3346653346653297
Ru3Qf6pXZua1DfNkQdhbor6iJ403,0.9378501420629186,-1.1092909273229772,-3.645769406228756,-0.07687454297941418,-0.029057336127457093,0.6098412673620939,-5.406465811114228,-4.35456789472772,-3.51812292466999,22.978845238102007,0.06311246835407713,0.7071913148064409,-2.5955305843274123,3.409426541185113,-125.8032709512684,0.035855810855810855,3.333333333333334,-0.6857142857142846,-0.030000000000000016,0.12333230366404284,0.7673320982760378,-968.3342857144212,4.942612942612939,-2.5896389324960722
SOhR7IO689NQCPQu56SjATO8FR92,1.820505645243181,1.9188815314158445,1.5119277547113468,-0.03710864941894565,-0.08732743071830111,0.4903783262212205,1.6763439269113056,0.6163995221723478,1.257763248840616,2.2278055555865217,0.09135146521372482,0.5244852744368378,-4.677483348333121,-4.558092760462988,-71.59290804340228,0.0503403365472331,-8.666666666666666,2.8571428571428568,0.025,0.22881768470094868,0.6827333700687465,3300.005714285904,23.160173160173166,-5.658627087198522
SPCT9D90pRa1ihXS5jEw6vCmquI3,-2.1332961052355945,-2.759269366980008,0.5690868236036325,0.05354520197914436,0.04321789870111818,0.6133260439118351,-0.638735376109942,-0.13437083223891433,2.4505417415411004,23.590714284639276,0.1983027867609466,0.6654588523691701,-34.090969660257876,-28.84883187462658,-28.498942701632938,0.047625291375291395,17.333333333333336,-7.542857142857148,0.03142857142857143,0.19640599223401864,0.7110593196581407,-25541.091428576205,-12.17338217338218,6.754578754578749
SpSfX0ZcfcPLdlOENlfdfvEPwru2,-1.7933410542945583,-1.0298162606381247,-0.027920098937613103,0.039990142801581426,-0.033696393329706545,0.547776241458233,-4.589204716024332,-4.228157636016527,-3.351148931755651,2.7437373737196635,0.14581989508071375,0.8534128628656098,-8.163724355264334,-4.306528475276891,-82.85912420912535,0.04928404928404931,0.6666666666666679,-0.17142857142857149,-1.2764912831261693e-17,0.3040523480937724,0.7565582185777184,-1094.0857142857574,-4.662004662004662,1.198801198801197
SvtOrPatsnWjicxtyndEzSdO5Wp1,-3.0774146750158784,-2.939244322837364,-2.1897703305422263,0.003171656861811652,0.02078395409398925,0.6747550847966395,0.9299496182366058,1.504753213052954,0.616179904452672,0.32616665214299323,0.05218342286582801,0.6626400438387414,1.8058040471711052,9.004715487516718,-75.34900257449182,0.0506585992267107,1.333333333333334,-0.8000000000000008,0.034999999999999996,0.24944866952463346,0.6179304280708566,-608.0857143368055,-5.48278690693553,3.2461243606754486
ToTCRJ4EX9OL6UlJqmDkaEbggWF2,-3.7426081005086163,-3.3872490907862765,0.8930892121728116,0.08972235854163597,0.03176674146040805,0.6362483460443563,-3.90230240310602,-3.444135663375379,-2.5449121998179263,16.921480513778256,0.05535138336887569,0.659774090113391,-15.929772858608674,-13.338492209112113,-65.63537129501415,0.04602064602064602,0.6666666666666679,-0.3428571428571431,0.02499999999999998,0.18524701612303812,0.7240711532978794,-2729.3285714115423,-3.663003663003664,1.9884877027734205
UK6MLdHbCaS4xIz2f3vGdpkbBzG3,-0.061264611041263295,0.5451739130277374,-0.4691564740406304,-0.03493605267599167,0.02792147531336782,0.6313579850630083,-0.8426352719253475,-2.3074008536923176,-1.481156305185016,-40.46594444389145,-0.026460445717923702,0.6593180778977097,1.4907543260899683,2.9204722923876507,-59.316887859069354,0.00029840947748499514,,-17.6,0.0,0.4425934854843755,0.9194940122481813,-16373.730000007146,-3.9426523297490945,3.548387096774179
Ub7nV8F55kPruh35ZpUcKoBUyn63,0.5028947387517406,1.0710357239696309,-0.15506749206538145,-0.10514502472311311,0.00696206753781649,0.549540730959684,-1.6723997043477117,0.894647130817628,-2.5819555320754475,60.96082647738574,0.032613801011443636,0.7117144496783551,-6.36927958445486,-0.030770247838361,-84.50648092078804,0.05058103661044839,1.6666666666666679,-0.6571428571428571,0.005000000000000008,0.18249828454268513,0.9387060499996436,-1696.9571428562924,-10.606060606060609,4.112554112554111
UbqFccqQZZgcqJIqCn3ErH9zQdM2,-3.5908272151402882,-5.3533227359325934,-0.535782835207019,0.13461973189429066,0.10574346413386039,0.6639160117662535,-0.7732043124443162,0.7040681916234993,0.3028737138984367,39.00829112752687,-0.09011130395250569,0.6341263027931561,-7.242395357443497,-3.980943159758338,-20.264887961975077,0.054204953370693094,6.0,-2.6857142857142864,0.045000000000000005,0.13076594149996804,0.7059074585890345,-5267.948571412904,-12.610722610722618,6.137196137196138
UbwuSMtBsHdW3Ji41opk3GInMqi2,-1.2151474073934503,1.9720116225522417,-1.3754365114720524,-0.058263579115129575,-0.0686420996230683,0.5367740590083807,0.2034482840771541,-2.245114123294555,-0.2817557013447533,-101.59553571428239,0.06605281228080141,0.5651705594132211,-6.115452968086748,1.4645543476253307,-43.52248499047166,0.042207302501420164,-1.0,0.4285714285714281,-1.2764912831261693e-17,0.1959208848911823,0.58809543500147,-355.7028571432204,-1.1370573870573821,0.4207102421388184
VwTymW8T68MfpnJvZ2X97ILqDWS2,2.308451211413328,7.600277093353961,0.5336077271915561,-0.13966263218003352,0.17881089724981986,0.541217814037765,0.2978461154178191,2.695460254035052,1.3507192497231402,93.86886652503605,0.20246955639583195,0.5888153598746569,-3.1834146341805365,-1.499454241009525,-40.59621595363122,0.05219759170997562,0.33333333333333215,-0.5999999999999998,0.03000000000000001,0.2856478233424802,0.787761772075111,-1214.2542857204162,8.365708365708372,-0.88134088134088
WKzqsLX1lNVSdbGgYTTVGtFwsrF3,-3.148807271717254,-5.953423978521505,-1.3211921382752725,0.12709086514420495,0.08729967013102571,0.6224213058148207,-1.5087952177920727,4.002704633598698,-0.18820910706232236,156.99536047284926,-0.02412734123277663,0.5281660402420119,-10.129425324704236,-10.65339543564801,-118.6918845520094,0.02509309912055908,0.0,1.1428571428571428,4.9889299544882775e-18,0.21342190289469215,0.7201348838647587,187.68571428576777,6.460423634336678,-1.1251791686574337
WbOfW9KmUkPQK8o5hlHJnJFdpp92,-1.6692560441241449,-2.698705007603659,-1.5289456542538238,0.02805838158334913,0.07123953378272459,0.5525277642497749,-3.6904207126089568,-7.349530910806137,1.0685746064280084,-89.45848016052612,0.19346253294796714,0.8937962308197813,-8.837031157360835,-4.220393716016818,-38.52273948283181,0.04013209013209014,1.9999999999999982,-1.714285714285714,0.0050000000000000235,0.12412555603406054,0.6975255015012369,-4698.454285715309,-8.12459145792478,2.2822151393580037
WcTsIpSoEhYeIBSNjAbbdaNSBya2,-2.7593928267304975,-4.289902765970941,-0.30520969261106956,0.108375227906516,-0.04433764444258508,0.47835057417850485,1.799751607558442,-0.46448113496624344,2.0204055255768676,-36.851833333174454,0.05756837559557488,0.6959068239559384,-6.865179352006099,-7.076787946669732,-34.66239989466374,0.05389385726073032,0.6666666666666661,-0.17142857142857051,-0.024999999999999988,0.24465644706793455,0.9441272414045917,-1821.4000000140502,-16.75925925925926,4.479591836734691
WeHQDy9BWldTlaQDVVlsJNCqwxA2,1.1023560712513152,0.14001961957550663,-0.10834610118645506,0.011310230871819798,-0.07818469543090895,0.4907364392493788,0.4639555545553963,-3.118171247095575,-2.3898448048705725,-65.30336580084732,0.0660914538940169,0.5828257137073969,-5.428015831030835,-4.137009453134209,-14.574823872949787,0.038924970225279826,10.333333333333334,-3.114285714285714,0.004999999999999981,0.07953483267323166,0.6325081357704592,-5822.371428571297,-27.081215081215085,6.795173080887367
Wfo71fsX1VVfPZnzhT7HEYBTwnq1,-4.323789152227118,-4.482481727966244,-2.802450884111276,0.03855897887032606,0.07227338237088461,0.6788706496293694,-0.6875606440353557,-0.325411698963612,-1.3655826044018398,24.418692596717353,0.009223041113828332,0.5731346293036514,-25.769562350414866,-13.7198343194589,-87.38998168681883,0.06393606393606396,0.6666666666666679,-0.1714285714285711,0.049999999999999996,0.38414908539976,0.9550006103355545,-3632.3057141440268,-4.662004662004662,1.198801198801197
WnC6Uscb5VMIr43GASKiUCO3AYH2,-0.36845900204608467,-0.8099307364983881,-2.5844723630341955,-0.024805290881013967,0.035206191750197464,0.5506903827774229,-2.877004795145757,-2.0282724184602214,-0.5219254994949543,14.722063492120265,0.10430105107155588,0.7087844527741267,-21.31382747139195,-12.103363711018075,-73.3645086614605,0.04967295776119307,1.333333333333334,-0.8000000000000008,-5.326600728850499e-18,0.5136181347948724,1.3358870130033043,-3828.714285725355,-6.033182503770746,4.184051242874781
WqoZv41KTtTCuPKBPyClregrKAi1,-3.385543189628728,-4.781186354378938,-1.0378864336553781,0.1838971134077995,0.07390389801126587,0.5139255258974882,-0.24212358912559,0.438341481533178,-1.2542094709613905,-16.307500000037535,0.06707871898222893,0.600475840257434,-4.842594484167835,-4.303056641231058,-42.13132870054046,0.02636407452196927,8.999999999999998,-3.0571428571428583,3.329463248908688e-17,0.04124867109858527,0.5513295576914756,-5221.6000000000495,-28.328671328671305,8.542457542457544
XbHvBButpZS4bapbJXJLAYcHnn12,-4.743068961366034,-4.330168217936156,-6.833894094250723,0.04785759311738562,-0.09637862678901646,0.6011969161019999,-0.24361638580204376,-2.9606849386311245,-5.939150533795118,-99.9816071428531,-0.15971211421755166,0.5211831313954697,-2.1055146722217737,-2.915649180013605,-54.33518887432799,0.036067721745641795,-3.333333333333332,-0.971428571428569,0.030000000000000006,0.31548173188567985,0.8309921109059264,9008.68999999962,6.572888678151841,-1.9016911648490618
XehZHBpwr5MYzUXkj0FAYCsFG922,-2.311097866513889,-3.4549275716806003,-1.45441057583686,0.08309376876391109,0.005797581320087416,0.6142072572902965,-0.8149886933906956,-2.59614243695746,-0.03291229788503619,-52.421424603454234,-0.07338352885314746,0.4102762084613297,-7.383519292991709,-4.101188552287063,-44.10416170769572,0.04504176452015999,-1.6666666666666679,1.4571428571428569,0.029999999999999992,0.18365102895551658,0.9054143445870451,-397.24000000272605,-1.8518518518518476,0.3968253968253923
YEU5ox3jteVINfdSTg5ymqYcS9o2,-2.456658461284674,-3.7787549259876463,-0.9713601436660096,0.03409773626976923,-0.1276011818499434,0.6038554630156877,-0.969106912260188,-0.43090469205079385,-1.5068116675206222,20.010345240945988,0.13802265282116513,0.5038879816199713,-14.541932282334948,-6.563384558092836,-157.96996503465607,0.03712953712953715,1.333333333333334,-0.5142857142857135,-3.590549065553647e-18,0.5366374791788534,1.1591460780029228,-2115.0514285751756,-9.32400932400931,3.716283716283714
Yco8O7tmHlbsUBfKW2ywcZByGO32,-3.6288399571788306,-6.538740536122371,-1.805493725722871,0.13456023503805703,0.1367587826273559,0.6043153335999176,0.6612212666037377,0.5409874659198861,0.7280037688060965,23.414690117418168,0.02003817785719653,0.4920992809290665,-24.467207167865514,-24.04333490769842,-162.01992812771394,0.016483516483516494,0.6666666666666679,-0.11428571428571391,-0.025000000000000012,-0.04262232891929924,0.7618742666126388,-2321.7285714319764,-5.167055167055182,0.9623709623709589
Z3GikGkUkjMOa6UK1xdIDvuGRHp2,-0.8347033355731551,1.5843961260723567,-0.9112285406470993,-0.06662175169093432,0.06770794000493009,0.6091167759717522,-0.1629428617246996,-3.220175872512697,-0.6674178043392294,-101.1378246818115,-0.026928971049312578,0.5953604002800139,-10.361290734598333,-11.304950003850724,-62.84910043670995,0.03333403782320193,-1.6666666666666679,-0.31428571428571406,0.03,0.22485241606320025,0.4962540297426624,-2242.9257143769946,-0.2086475615887622,-0.5912322971146453
ZEd5KGl23wS7rvzDkxzgqmCgLaC3,-0.9217883758744897,-1.9805657791895306,-1.1313993233357906,0.023658750617341042,0.09306413609153384,0.5882154489888394,-2.988799430263934,-3.6211917007227665,-4.338754281622027,-17.253389599754172,0.030676240427879066,0.6250020465959292,0.5242850448539869,2.521822882755998,-63.79572927230722,0.048035298035298046,2.0,0.17142857142857196,0.020000000000000007,0.25637476674422865,0.6328022067470777,529.3771429130009,2.525252525252526,-2.4427952999381524
aM2995jJmJWvr6cneaGH58HauIg2,-0.46575042620632207,-0.42676225229571974,-1.7093299318652142,-0.02965869607207362,-0.12297174404496052,0.6049063822383444,2.951778002541394,-2.0311690597085095,3.29510592244885,-168.57000541629708,-0.00633293990887433,0.5316654456593655,-7.829567325123252,-7.344065979011201,-36.27284565867824,0.05310476846854556,-1.0,0.5428571428571434,0.014999999999999986,0.2977114437665474,0.694033332856419,-850.9114285554195,-10.392156862745097,1.271708683473388
afdTz6deeYWf1qKNdUpKAYKN3hz1,-1.4409899467557667,-5.194634828894988,2.33595212482454,0.17143609726460415,0.07701973577198051,0.6800777914950128,-1.810218367993482,2.182068569752689,1.525225538034694,41.208333332633785,0.14027203480193132,0.532788687276287,-17.183089097669345,-17.781606195012092,13.02332369048041,0.02408759646465249,,-17.599999999999998,0.030000000000000013,0.07661000130434922,0.7104509468327008,-78790.73999999165,0.0,17.006802721088423
aj2Ivskb3BgyvBNTLIKlSZG0Sq22,0.05802267808805094,-0.9882995010677446,-0.6020620074587729,0.016283725908601956,-0.03450211223277069,0.5099130950254213,-1.2886118345408435,-2.923393819793222,-1.6476975261694806,-30.17299602925866,0.051043664964306415,0.6330927416951025,-1.0363245975731805,-1.0814406289832101,12.624093552338097,0.04014455444796003,13.666666666666668,-5.114285714285714,0.04000000000000001,0.06191929030534179,0.6608910924016639,-6142.091428545543,-21.008158508158516,5.164002664002667
asKxydfXDkZAk89VaD4hwVovkzJ3,-1.7065368621392591,-3.4714179104389276,-1.6596272854374305,0.05999790631728999,0.18947810345166158,0.6333758233955604,-1.4077864232092634,-2.8921786743719022,-2.3473932429425,-32.08135714218465,-0.005531513861147814,0.5334570100488875,-8.337409665771766,-7.254686307420975,-41.838260394582655,0.03918216286637339,-1.6666666666666679,-0.08571428571428669,0.02500000000000001,0.23641697217657193,0.8810907846801034,-1361.071428572813,8.533863797021695,-0.5430909942188078
azdL1gX79EVd9iepyCAVQrqIaQF3,-1.152957507153319,-0.7283047530766725,0.8618910204031986,0.05110140023338084,0.13250109377879482,0.5487974654785619,0.4841843931869295,0.3153243843431609,-0.1802706331988315,-32.232222222218205,0.09009066817910329,0.5423110031169935,-7.53683152664734,-7.486593732802223,-85.95259056389615,0.05069924055992169,0.33333333333333215,-0.3142857142857135,0.030000000000000016,0.18184632121689498,0.6655801348740382,-1465.0828571425998,14.041733120680476,-2.420255183413075
bXpFswkI7TfIfL6G4FqWrbaxTGx2,-2.7145654017487577,-3.2346587266168907,-3.132616939364079,0.07319873242212904,0.11901661261404684,0.6154139359103049,-1.2160071985527556,-1.9713994517280782,-2.6076372583286624,-24.29161111111375,0.1295087033809693,0.7182526987016473,-2.012488784622469,0.10528123836091358,-40.017342271252105,0.03836866159520624,-5.333333333333334,1.3142857142857143,0.024999999999999984,0.3824626875379748,1.0737943879644174,1154.297142857369,8.66032116032116,-0.03524253524253693
biQ16yPcCKSkJQhSxUKcDc8gm8I2,-1.5193817579445488,-2.55474318119247,-2.085830302513289,0.022299730030724,0.0719906123308738,0.6229211475051211,-0.6056741460806215,0.21005194021603496,0.5036140273790819,-30.540534702663948,-0.05908979957976263,0.5058781271155433,-2.5408747826311195,-2.607778873472907,-11.894889890543483,0.022279191277624677,,1.8,0.040000000000000015,0.01486967879746406,0.7245903875307939,2140.61999993324,8.098891730605288,-6.433387584282719
c0hRe9PCPPZs3HWFqhIQargNlp52,-4.625493767389476,-3.055912480595345,-3.2813647342330903,0.0956427554068743,-0.037146769434859395,0.5725773543323088,-0.5311636026713348,-0.1953580603276044,-1.1907161298441775,22.398010425521207,-0.006973790760628261,0.6092812026056258,-3.273990617749854,-5.739452695541564,-51.22191571323231,0.05145731461520936,3.0,-1.2285714285714278,0.03000000000000003,0.4121234538760411,0.7695154555880028,-2174.6028567177905,1.7521367521367495,-1.1172161172161177
c8BtRUVPPPZHjyhX2rn702NoUld2,-9.388121453135719,-11.470365432982028,-3.0063301564775147,0.2681634935842815,0.32840236401914463,0.732162641493541,-0.12009320179331526,-3.6998147468896843,-2.7335442795172464,-111.79780194736148,-0.018277711919258786,0.594183122871689,-13.417905935101091,-9.910955117867049,-57.83491279304493,0.037469776600211384,-1.333333333333334,-0.8571428571428579,0.03500000000000001,0.29984049587857997,0.8392365532228118,-3877.96000001601,-1.4246622942275167,3.002463375134188
cC0BEsQjfrcuCyoaOas9zJT0MNs2,-2.8496388506156136,-3.0675084040598337,-3.1564939796196487,-0.001810437017136716,-0.04877823731922844,0.5570092937388299,0.7116779151580463,-1.3056341242054066,-1.6844849401627182,-59.21852778467873,-0.02598717071021401,0.657295623653311,-1.0422393917052224,-1.3900050386153449,-30.484241010705016,0.047693162810038235,11.333333333333334,-1.0285714285714258,-0.055714285714285654,0.16589587275219708,0.7822893135887408,-1378.9514285632526,-0.8735072976559195,-0.7557759946083712
cEIs6U87xfbSL5eFTXDK77MmvNf1,-1.6287244650724781,1.0660176006614956,-1.8666432274851221,-0.09982024996785034,-0.0472206184400055,0.5333911432851612,-3.919198081243949,1.0639794125563762,-1.4788406202268727,86.54108334541323,0.0634030941319011,0.649925918169397,-11.356053684270265,-5.292883485366361,-69.52890402735213,0.03520322322789709,11.000000000000002,-1.0571428571428563,0.015000000000000001,0.23339622153566164,0.8216460104797774,-4406.565714386531,-1.6583416583416692,-0.4146329860615587
cUugYJoOmOSFc0Mh5JD0ZXJrYN52,0.1472898737363196,-0.10296930629297679,-1.7150266707645805,-0.09309288992663717,0.1332075740351613,0.7825450008164111,-3.600188691736794,-4.204839724880028,-3.200354885644658,-43.54299242482093,0.2615103423743158,0.7620372341112605,-6.825970659460021,-6.985304536117012,-92.88231510659362,0.023221570096570106,-19.0,2.0857142857142876,0.005000000000000004,-0.023493357098932417,0.6691740073182053,1762.7628571382613,18.518518518518505,-4.852607709750562
cec6NLR2ZLVVw6h0TEKSNIH11v02,-1.1757177581781113,-2.518876642939713,0.5345023751600437,0.08945191309658795,0.15948730565172098,0.6778170379656375,-0.16182861295148732,-2.2210592857280065,1.7807369763542433,-38.513972222240795,0.04915512320756215,0.48791435580135345,-3.5067378341880033,-4.107437312006004,-29.98597235341515,0.00719996321896374,,-95.99999999999991,0.007142857142857141,0.0831938131123902,0.6484415120261443,-143409.69999999774,,
cfoKz0AGhvYmW0DJmVKAZ01jh752,1.4678383759020657,1.2597195524904516,1.439180836811322,-0.01223302577695661,-0.053744336686351764,0.431373030048588,1.1552906857849732,-0.4499528886690725,0.41461964101131676,-30.88980556792681,0.06795228940920514,0.628487860878463,-0.1086308429391492,1.4589987429266469,-15.871028269896163,0.049796694533536655,-3.0,1.2285714285714282,-1.4321551275446575e-17,0.21586102246466235,0.9398847643170538,1320.8542856829506,13.636363636363626,-5.411255411255411
d9rwc0NXArcNlJvFsgKhQqkGxJq2,0.9107741962782007,0.7209372585131134,-0.040612786856961396,0.05373498841923721,0.012276418805068879,0.5638718836704135,-0.919374082439664,-1.931973289607618,-1.9317315756065556,-23.91791666671635,-0.10517672301634085,0.44607196111856495,-14.613813356183876,-14.504559006728098,-86.21389538304182,0.04088475724631332,5.333333333333332,-1.2571428571428571,0.020000000000000007,0.1981631522819738,0.6920646773783694,-4533.905714249612,2.1633337422810968,-0.8871829924461433
dnkEqKuvjoQzAQm5yXlrAOp9ZlD3,0.5849132954591335,-0.021032261605307006,-3.931468221210777,-0.06790502830255227,0.132821109671149,0.5829281787871945,-2.0342438664500153,-2.2928789115660564,-4.734435827267855,6.782388887670278,0.08199817817571194,0.7826725370533489,-15.501910473974533,-12.592541874159524,-242.7896876739937,0.05150266400266401,0.3333333333333339,-0.2571428571428574,-0.05000000000000001,0.2624452106578679,1.112064207319294,-1847.8314284937733,-1.5873015873015817,1.5213358070500922
e7NIVznoeNMC7bBejXnMVvFNPfx1,-1.5101638399267447,-1.310966144179929,0.5892146690120815,0.07063513395558198,0.22284588658065005,0.634675723602362,-1.307348969971943,-4.9349237533102315,-1.5399692568442653,-131.9400919860985,0.13713727650280783,0.7157015617540037,-15.789733219903026,-10.110344799284256,-160.00623868350874,0.07159507159507161,0.0,0.11428571428571463,-1.1698895897789341e-17,0.14208658881407674,0.6837001421342611,-1134.9399999754783,-0.30525030525031127,-0.6017791732077435
fEL2NrgSd4MmDtLCAcMvCJQXTME2,-0.7954025800899244,0.8788390418964993,-0.37454164627584835,-0.07915173278875887,0.05799657525293332,0.5995249161706069,0.5681495674968939,-0.9670849596224618,-2.7464375189037655,-44.68960150839344,-0.02387548263647288,0.6611605962001592,-8.628450767838284,-5.518294672617488,-66.8697692952433,0.05358997727418782,3.0,-0.48571428571428593,-0.005,-0.009504367878378077,0.7107758586837438,-2152.785714284437,-2.309970731023384,1.7440704658749764
fEq0OghbLpfD1jigl1Mbz96aMbg2,-2.970056385587348,-4.233084247754884,-4.596975171210539,0.02291381091404871,0.1647491621137948,0.6835439785124571,-1.5127949994957863,-2.5543429963509974,-1.503790397283113,10.951389609303947,0.20641310371246346,0.568413795323466,-5.256182416964915,-5.144267564567488,-62.93793158939503,0.04725561794527313,6.000000000000002,-0.4571428571428574,-0.044999999999999936,0.08217942298979447,0.7110286410490991,-1660.8371428574833,-17.221475842165503,0.6845371377391087
foaW7wtvY3XLNdguFUK7OvOefP93,1.259571936822793,2.8099318791354015,1.2527299129925773,-0.035167200783470264,-0.003152528066103428,0.5676061518430574,-1.735168596344244,3.847122302158143,-1.4981915706613134,124.28741666666464,0.11593282316193762,0.7480894917913601,-4.5571323413432046,-5.002959796110467,-49.67783804430525,0.03945050047991226,1.0,-0.6000000000000002,-2.128549928433445e-18,0.09988799933601908,0.6965045797606201,-1298.7114285715047,-12.71756021756022,4.311854811854807
g2G9l3no7RbeRA9a1W3JnfegTnh2,1.9156909485159435,1.2760690260256897,1.954619714128116,0.001880450069041171,0.12471768408490835,0.744088806278987,-5.015177384446389,-5.033233251474753,-6.574839155299459,11.133909084936159,0.28278547293646206,0.9289350055880674,-6.691836925036153,-7.848158467943653,-32.312838547923256,0.03026763560575603,4.333333333333334,0.5428571428571437,-0.03000000000000002,0.38987521355649063,1.0484968073140724,-1217.4400000538126,-7.49601275917064,-2.747778537252222
h12a1QYNpYbl3T0Gj1PxUz3EnEx2,-0.9664189399152495,-3.8989782756686746,2.2012645338766257,0.22181423014947765,0.12083131050168897,0.6930215120693374,-0.18360627184523576,-2.9815430830866685,-1.5481303346431348,-73.4240692640698,0.1100308669711913,0.5392282184735384,-15.708469998071504,-7.9244859990875245,-128.77720612720287,0.03949383949383951,2.0,-0.4571428571428576,-7.160775637723287e-18,0.07957597999715488,0.7414689523435866,-2754.9142857144316,-14.18581418581418,3.0093715808001575
h52Mz0cZjnOsmXT02EgU3JzzRKs2,-0.4569600298673779,-0.7263655046608166,0.897430966151223,0.0429664391293213,0.28930567557034775,0.7420915177603767,-2.1458726754323343,-3.566929471591803,-2.383404471985551,-17.61961471924397,0.3641490696965746,0.9610728868054501,-19.490719972006612,-14.898082273004784,-62.96237107919845,0.013131313131313145,3.333333333333334,-1.3714285714285712,0.0,0.1805490326498523,0.8709901447436398,-3968.991428571942,-18.819776714513566,7.546138072453868
h5RYP03wJuVN0xo7qAR8CKFxLaj1,-0.6378609498385686,-2.6058921576579794,2.5942138859792707,0.10307861809532566,0.06506897329583802,0.7147875635042992,-2.2149038300441095,0.810673504827378,-1.041919701302525,72.85621464330585,-0.13389930225244634,0.6412299835004033,-7.843204499356436,-6.2424993807123315,-101.89310752951963,0.04708451350327781,18.0,-7.257142857142859,0.02857142857142857,0.002608049078624207,0.7186595709322748,-14581.271428508422,-32.45920745920746,12.47918747918748
hOrA1ssI5vaeeeXRJhtjrGrqHQn1,0.30393880343031643,-1.3763152376147454,3.0169634455842984,0.08243907638645512,0.13861151198382513,0.5301632910137439,-2.442927378343762,-0.09970187006207477,-1.3281027498931863,77.42635245310603,0.11908618004198998,0.6728940955377205,-2.768442798964482,-2.947219430787229,-54.029115753526646,0.03055841217605924,0.0,0.39999999999999986,-1.2764912831261693e-17,0.23825459346209923,0.917007001171095,366.40285714268776,-4.5634920634920775,-1.4022881880024747
hrRr560eFBNwJ0CcUjCqtSD8TdP2,-1.505420140964159,-1.0012015929121998,-2.0180210178233575,0.008265844678021788,0.18100889097272393,0.867507758595987,-0.5513499886172457,-3.513566408162955,-0.0627643396895429,-69.09575000011158,0.25440244624372804,0.7099425500478698,-7.88588990045711,-5.903411154365967,-39.39440563165724,0.0460419908309934,5.333333333333334,-1.542857142857142,3.068677201859989e-18,0.1681226794171624,0.8020273034883207,-3136.0999999981896,-10.93673305949521,3.779962577916549
htPWXDgfuheOJbl6ihHore9XuDp2,-4.704904264524666,-5.2869253376390954,-2.6089442658332405,0.09645965123214445,0.18241791698675,0.7253220998216784,-1.0743944051101233,-3.230012133048509,-1.8503253627506677,-45.51242843991233,0.09943948196821613,0.6426874476261951,-11.021562782621888,-9.44723119765084,-68.65505679475326,0.03939027948315874,1.6666666666666679,-1.2285714285714289,0.01500000000000001,0.11388922045993616,0.7764213761344692,-3356.154285594397,-15.025252525252512,6.396103896103895
i1bdbtLuM9UR71xKs8yOhuCwJ9o1,-4.701503065081773,-4.602941999103291,-2.6940295594089276,0.01589006972432591,-0.22403997248188157,0.46506286016454956,-0.8598468420514712,-0.978400677250799,-0.7646738409475438,2.2772337689221516,0.08167640792571625,0.5941592850996712,-14.645443436646952,-12.706215217818226,-91.96559691853305,0.0467576541105953,-1.3333333333333321,0.4000000000000004,0.024999999999999988,0.057612834272004844,0.6835513464800268,-1084.359999970024,7.837995337995338,-2.5349650349650377
i1tBstVkNiVP0qro7TgGD08IGGa2,-1.546354412286071,-3.1267505366805373,-1.6056722449069505,0.1251361527065068,0.024541210445825235,0.6296006949090142,2.0803444383071237,0.5709100408392211,0.2148888260499938,-86.49612193506262,-0.04836675246653401,0.5845346318151119,-9.628490389354683,-7.717710166081625,-78.58339518184515,0.045634757399463294,-0.6666666666666661,0.1714285714285718,-0.009999999999999995,0.16707977545837566,0.778990756319811,-1083.8457143374867,11.720779220779235,-4.698515769944343
iKVZi0Oo96UrMBhPQMHWFcf55uA3,1.844972044015352,1.1621131897657746,1.3611725587003167,0.030344585208641195,0.28374999365539083,0.7111961526660746,-1.4499544793474897,-5.6501944443113015,-3.961796006262561,-83.7472222222385,0.15994549570295863,0.8053732290232498,-11.792361720808826,-6.9393288590618765,-98.38745143745406,0.05011655011655013,-0.6666666666666661,0.05714285714285707,0.024999999999999984,0.12324660125368872,0.5408849820892875,-1096.7714285715688,5.555555555555543,-0.47619047619047705
iWsc4pghIEWOQUZKuQJMfe516UI3,-2.9304732967628895,-2.1837026423767667,-1.842008726954153,0.01739340042073616,-0.21409320713484584,0.5191145494231346,-0.8671738156269249,-1.916339941298903,0.9591300218434853,-7.94825108586449,0.04597617290860061,0.5405891360182175,-16.69005598829953,-8.292729887739346,-102.74849633513531,0.04584844979581823,2.0,-0.9714285714285718,0.020000000000000014,0.2966589213240078,1.0331802347409076,-3330.3999999914868,-8.080808080808083,2.839826839826838
iZScIvzhvAdvlsBXU5D8IHwvG6Q2,-2.4889846148815455,-2.576465569160433,-2.0329453028438986,0.047675629130351296,-0.0011785078104190314,0.45824788638159775,-7.047444928184585,0.8969599753240174,-3.6762049021573184,159.45291269530384,0.1480305656383882,0.7629192845825514,-10.401659549227727,-11.005286111411193,-147.40688720096267,0.031496975666516235,-19.333333333333336,2.628571428571431,0.022857142857142874,0.39122334887299615,0.8423746065943309,5491.611428523071,39.277389277389275,-9.275724275724276
iZX3U88SSqYAtT564nBPgHUBsei1,-1.5187331524541654,-2.5196791237459366,-0.6538279893134515,0.043472795601186456,0.026706403180757503,0.5530280160828165,-0.42250548368382584,-1.9887911094136397,-0.6220446690481181,-39.97759920415777,-0.07089016827849835,0.5292786406021488,-1.232763789546801,-1.522109963228865,-15.123074319316922,0.043901295058377816,-3.9999999999999982,0.6857142857142872,0.015000000000000003,0.23006004953247336,0.6481208286792065,593.9171428723001,-2.962628769080382,-2.383423028584323
idP8RVfm74N86O0dszLXANIpjXv2,-1.0796264830868385,-1.5170677679426448,-2.391960640307794,0.005672503559071208,0.05030958191569956,0.3833037427945826,-1.075503254210024,0.9475901200119139,0.5093045775022128,46.1091718304352,-0.04563327835355307,0.5647125790346723,-6.4601836357033795,-2.1459980209231855,-57.91803196876734,0.04462204462204463,0.6666666666666661,-0.22857142857142893,-5.326600728850499e-18,0.1470723927686091,0.7752074382659114,-1104.6885714275486,-4.662004662004662,1.565101565101563
iv9ew8Ci8lOzvXFiJw1acJfuRAl2,-0.22091143340067287,-1.0621270652455994,3.7167121508789878,0.10602655998222055,0.013171923899712685,0.6491246109739736,2.495714103082315,-5.947194010007908,-3.7868097549694397,-235.14087301588336,0.2686882050355944,0.7805378118170921,-4.171616358325008,2.990815199572191,-145.74792823275894,0.05476400104883078,0.3333333333333339,-0.2571428571428558,-0.025000000000000043,0.19287579648319506,0.647455709994306,-625.4857142856589,1.2025012025012103,0.8039579468150898
jpklrtZKDdb3UbsoQ7Ho5KuR5yb2,-2.451962199171185,-2.993151848076936,-0.6243381351975482,0.08686183503657778,0.13855921456129497,0.7549502814282164,0.7418098654431415,0.6922962917609411,3.387625694743806,-2.71461111014082,0.03750081210750678,0.5141731124175963,-16.85975961557592,-11.806615960486951,-150.71153457652667,0.02680652680652683,0.6666666666666661,-0.11428571428571384,0.024999999999999998,0.11406804816898447,0.71708435853428,-1692.614285736423,-5.555555555555543,0.9956709956709963
jzdk8E3tVXTXIozlfK5oeEb7wWp2,-2.6829513014225843,-2.52508626239359,-0.08508655151216017,0.05240223091714666,0.09938214085813597,0.5384299264557755,-4.2825241212054,-5.035244998323984,-4.360063632472175,0.21555553631684748,0.14093371628618218,0.7126922714353137,-6.522899884748522,-6.363966285822726,-26.790503551802715,0.03815749467923383,2.666666666666668,-0.6285714285714289,0.075,0.1905602130340272,0.878734094790788,-1786.2571428503318,6.177156177156164,-2.1078921078921042
kI0YdycDU0X5hcoEPjEON3Ionyd2,-2.8447001656429136,-3.9168013152787675,-1.0312636844016527,0.0023560262778993648,0.17231884044691168,0.7872076967205335,-3.767004961560373,-2.4986295267722833,-1.8223311989404634,7.696583337005608,0.13490343357365128,0.5781109050368103,-5.718029120418035,0.16910775542708995,-61.27349032720934,0.04808622749799222,-1.6666666666666679,0.37142857142857183,0.020000000000000014,0.08360382838469584,0.5323761415322451,231.90571427515687,-7.738095238095241,2.5927643784786625
kR2rCtaPyPaj7YMizKUDn5xL2qx1,2.125804422767734,2.1723782430920977,1.4478778882159034,0.05156455091001982,-0.058771919429695146,0.4408828474840943,-2.5981539002517935,-0.40435413785601426,-4.075310223430996,49.92432359307888,-0.047332349221675514,0.46265631124096,-10.394405183760592,-8.360795990534116,-90.48600566100134,0.0532800532800533,-2.0,1.6853686220433355e-17,1.3074942392107423e-17,0.200917334865654,0.6541914095984068,-1539.314285714365,-5.699855699855675,1.7206602920888632
kgSRatooJJfDaMZ2yIURqb8aJuE3,-1.2842308493669088,0.31172178991906424,0.6263048279780083,0.00011926969084822859,-0.011910942815764484,0.4523966925903136,-0.02197681487934525,2.389633874677554,1.163751327008714,26.616861833302227,0.02331154231168126,0.6794654263909992,-12.641120600208245,-3.7704748943951234,-117.74961205446444,0.03155178155178157,0.3333333333333339,-0.37142857142857144,-0.025000000000000012,0.3043086829711764,0.6335929073167254,-1724.9200000005112,-3.4188034188034067,3.150183150183149
lHDkoPQu5reNCO45npeYSS9eLQl1,-0.5337476309427974,-0.43970938745512367,-1.0371712788592728,0.03353591238966746,0.20981530624614672,0.8996108943133471,1.0662701902627925,-0.997397731211774,-0.9727480443719243,-63.14020776038048,0.12009285528511693,0.693369521575752,-11.232966075211138,-13.21876042884907,-30.200117555425795,0.052982013961368986,5.000000000000002,-1.6285714285714306,0.07,0.16219990929045175,0.6727453469262756,-5721.088571466722,-15.13116513116514,3.9032396175253408
lpzDdvuMkKWkPxu6xeclmdctEp42,-0.4606376610041416,1.0633036866965888,0.9010374596922135,-0.003912802420391153,0.006410647028705432,0.5713935220497393,-1.268751653007565,1.397284702584122,-0.04202899837554918,83.57908874384015,0.18525631903681214,0.5616610731242544,-12.612252708245116,-12.93761517578103,-72.38573034934937,0.05403654316697796,3.333333333333332,-0.2285714285714283,0.014999999999999986,0.1460473248537644,0.6697232117771446,-2352.308571440835,0.6216006216006207,-0.4195804195804185
m69r9GQTk2b51mvxrFLt4fZeJi52,-0.3960773764003099,-2.83397605033533,-0.724874457869005,0.06760794309003526,0.16265869805066113,0.6777146979157858,0.8273325912858671,0.8715467935374555,2.156201413636417,-3.7318759018765024,0.10540797192003001,0.6707462996743006,-1.689363143631161,-0.6414225508368512,-57.881364794622904,0.04238536825493349,-5.0,0.6571428571428574,0.015,0.1735781460670234,0.5920672069478342,909.8857142857614,11.35392385392386,-2.5715950715950693
mUZzgdWKnPb2txOkJg9FHgqX5792,0.1349198910715738,1.2457389342800675,-0.23378419596486452,-0.06285521463232721,0.015816336917065372,0.6251378400526585,0.9929609989548551,5.567725216861356,2.4080602270943845,123.96519481750448,0.14212169318960047,0.7700317719758795,-3.1406228571336703,-4.058734395420729,-14.984770047368059,0.04953820060328339,4.999999999999998,-1.3428571428571434,-5.231988062257815e-18,0.1047803981502653,0.6844123398015859,-2679.102857181008,-28.406023800760657,8.338372154161629
mYRMPGfR5gRSjnp7ojjD5sXo7Jr2,1.8274773371818767,1.6537245426142841,2.102341940776055,0.02018393523180266,-0.09365944486163423,0.43216839514543487,-1.3920700567609614,-0.15405144641937507,-3.3533529661097843,11.978933247648245,0.1316706143098985,0.5496824022893729,-14.28076564239778,-14.312486344369194,-232.68514747544427,0.03533420483884881,-3.333333333333334,0.8000000000000005,0.049999999999999996,0.29044758283198807,0.6926222499634865,376.80857142721067,19.476819476819472,-4.7286047286047275
mweMgSlGM2VxThhwnupYxYzUbR23,0.0703800441252443,0.6679447946612158,-0.848955271311737,-0.035907955029548494,0.15658398206872162,0.7889427215903801,-1.5275661966994665,-0.3959464972606464,0.4993986936375511,25.866594516631956,0.018736619072939904,0.5938209575581089,-6.520596577589859,-5.441553734690644,-41.75256946485005,0.035966402878167596,1.333333333333334,-0.4571428571428575,-0.020000000000000007,0.0700878150820085,0.8359677768042746,-1516.1742857142026,-17.058823529411754,4.4684335272570594
mwsliuPsLFhRFjtjQwYkqcCRDvi2,-4.981847745753302,-6.522588475735305,-5.948606377218565,-0.009977747658518032,-0.16550541317843137,0.5951233824106517,-2.0754912971661463,-0.9751075858130448,-1.6383176388414347,25.678549874451576,-0.023100388110803713,0.4508633799767221,-17.91039616690242,-9.611684015350463,-121.11032633081982,0.055444555444555454,2.0,-0.5714285714285708,-0.025000000000000022,0.19314829457856791,0.9150510241218227,-2851.600000040871,-13.68076368076369,3.83188240331097
nHy6rdfyacWW9BnyDb1dNvNYWfh1,1.7163444834182306,1.9556766375009198,-0.71481769059842,-0.03160950114786747,0.15691872449449126,0.6356205855475862,0.17593137254040658,1.993828917938777,2.7777958999236048,44.19891414192002,0.055047589266790535,0.6079422504826306,0.6597141495134013,2.761141871210985,-11.13315856972534,0.05333589362731913,-3.9999999999999982,0.4571428571428573,0.055000000000000014,0.09245866247183746,0.5756888086682421,1376.2485714280187,26.22763709720232,-6.737879098127547
nT1qJOiMyDdJ9ui4el195A8Hsgs1,1.8274897945946291,-0.29890338710604136,0.4262482871088133,0.021097837836738007,-0.036645471958686816,0.5899722124438257,-2.159482370407954,-1.8382098447391397,-1.5500088908934995,21.57452778398994,0.203258931075624,0.7051443051388945,3.6683908127017495,-0.6232166142119813,-105.88569306000932,0.029638694638694646,-4.333333333333334,1.171428571428572,0.049999999999999996,0.03182833778126445,0.5363181641421422,3587.5028571196976,4.419191919191917,-1.655844155844156
o4jXmZcjtMVF2ZInToRpVHUhpdV2,3.451567143941536,3.992471099099985,4.7122599932884714,0.0013743956645746417,0.022659496594916322,0.533621816476114,-1.8152307101425236,1.5410426390587437,-0.10139040381143383,68.0210436651252,0.08954299184075835,0.7845715936599723,-6.510898185925598,-9.069015693001468,-83.26583928249975,0.011894246104772426,-4.666666666666666,1.0285714285714291,0.05,0.06007278385572244,0.3929974294402498,1329.5771428585062,10.674413305992246,-2.856166390000982
ohl9pXqpeSMfepC3w9h0tW5SbJw1,-0.22032657619880572,0.0628481640669347,-0.47006114372535157,0.009417310107219664,0.12222198569595244,0.6748660659633279,1.5509332749632716,0.4460344715869563,-0.8051154565732688,-7.998500000000841,0.057648164058709886,0.6101721697517728,-11.208414661235935,-5.7425238448990585,-48.58851773226454,0.05379620379620381,2.0,-0.7428571428571422,-0.025000000000000026,0.37207785471583577,1.2266958122740519,-2751.308571428475,-12.049062049062059,4.6444032158317885
pFlYc8DBmSXkvMIRgXFxvo3JB6j1,-3.7718710815734733,-5.564876884446877,-5.0714939277996,-0.033175196716973214,0.08035640212895268,0.6379181106494604,-3.3755707141697875,-3.0784230678003865,-2.8863833518040574,18.822077922097773,0.018016822578613458,0.588072594823932,-0.876895818568457,2.7503738540561953,-73.66493862286616,0.044581706413716116,-5.666666666666666,1.2857142857142863,0.06999999999999998,0.007360503879371823,0.7646291862278725,2106.028571428486,13.183113183113178,-5.410145410145412
pRQimOpZtsekBI2I1kbnD3pycmo1,-0.9353446907633888,-1.617298513955462,-0.13000843007688198,0.020543111076140014,0.19727603195629925,0.6089198593240355,-0.6445106141533753,-3.22955933761372,0.8408797785843942,-66.60444443629845,0.07840820390036304,0.5113894351681141,-13.509691279444656,-9.832290470190959,-107.60203173466222,0.0586788211788212,-1.0,0.028571428571428845,-1.1698895897789341e-17,0.25728808209917997,1.0779973900412159,-1693.2028572389067,-0.4173604173604133,1.5867941582227318
pcbRW89vVJcviD87V3uxyG4I9st2,-0.5012367419999599,-0.794831104460444,-1.6441361533811714,-0.02297310764758938,0.0528927561191469,0.6902871306692377,-2.6826571547396423,-3.8688173858895,-3.103184444502642,-12.598038961023915,0.07842122984964697,0.7515911157685274,-7.489547283703142,-8.208509230140674,-121.06246208211665,0.01626048530073299,-1.666666666666666,0.08571428571428533,-0.025000000000000012,0.16508293391781034,0.6203374532863867,-283.4400000001422,-4.882154882154893,0.9379509379509441
q0Atnpm0jZS5swcVmq0EMalQUKw1,-2.4535837450148033,-2.2643017039979556,-0.7332368958473896,0.007975409790524132,0.09429219004089343,0.6184089248922249,-1.0494915620553589,-3.5967897008647487,-1.1298129981729623,-67.84380952380984,0.08604794130239453,0.6305156859048284,-13.355767940979227,-6.9419280707803,-80.68113553114037,0.05744255744255746,1.0,-0.257142857142857,0.02499999999999999,0.5827150537877234,1.30070119745394,-1935.7428571428384,-7.187257187257174,1.7815517815517843
qZZiI6GzgxOrpQDGu42ZA0xsGEJ2,0.4228126385062505,-0.09666136016780823,0.7059818984387691,0.00984192619630717,0.10665037741643603,0.5715619477132907,-4.25549711665598,-1.1719218295637572,-0.9664882576621402,103.45218831666878,0.07492605101404537,0.6736346407682715,-3.8661125480758343,-5.228550566598016,-4.814539808364543,0.003215504839563775,,-59.99999999999993,0.0657142857142857,0.25103710561394366,0.6692799972588827,-92513.39999997604,,
qnR5PLX1v3fPi6SwTJMwGcadwyD3,1.5802195746130787,0.37699083156002805,-1.29844712034599,-0.05189695740885824,0.13930105509735405,0.6646135291027843,-6.8741257197735495,-1.74585258157565,-3.996413643666239,170.47859199124758,0.20221890839899423,0.6542570522631094,-6.767546064982956,-7.139419211572325,-46.06807937694469,0.04084161452582506,4.666666666666666,-0.742857142857143,-0.049999999999999975,-0.04825794245894576,0.4096019777797655,-1824.5342857054293,-14.699627857522586,1.5060378218272934
qsRKc69hK6e8Uu6vr2pBO8NbpMt2,1.1410924317090494,-1.1377105176346767,2.4610079495617097,0.1175881478857825,0.034607835830120184,0.7074841274529128,-1.640014875778101,-3.3774691052113,-2.844127481951358,-57.2620634920675,-0.0025828825406916255,0.5322713049455206,-5.820913263950813,-6.279854752285567,-167.69129748819887,0.040736009776257465,-2.333333333333334,0.8285714285714281,-0.02500000000000002,0.1760403796011755,0.7969433663311382,1378.462857142909,0.6734006734006783,0.9435009435009458
rFV2EUbp64f5ORSh7DqwmCQmeqT2,-7.831933225430854,-10.728167861641143,-2.5024709357950106,0.20874138078124813,-0.03395190658880955,0.5430583146758452,-5.748724450756635,-1.5962597103482317,-5.637145762921499,111.51374025893095,0.10247589705158675,0.669701892046481,-7.581399402926975,-2.775216545666913,-61.13085920308984,0.030312125520036277,-1.6666666666666679,-0.7142857142857141,0.04000000000000003,0.21487035896118759,0.7636843511058266,-2593.9314285780706,-8.774558774558756,4.193663479377767
rNe3cRPepZUXbJhmmfQZiGsVzX22,0.9416443473652628,-0.6223251711271957,4.066837193247883,0.13849855030926791,-0.04517224482037667,0.425831638307183,0.33643615199139126,-1.6838182427865416,-1.8462738932387104,-93.9921628426486,-0.15929702491406547,0.5243397787929472,-15.328863139388488,-13.248677211494526,-6.412410334194978,0.038665663093580716,12.666666666666666,-4.742857142857144,0.014999999999999996,0.08449677934548812,0.656549568747013,-12161.75142857858,-22.25938312894835,6.8960025481764635
rUuJv5gl7dWVo7UPQWMx4bohxhK2,-5.482462979846568,1.2925883450938547,-3.4818825476914594,-0.10343032843658198,-0.05037738292257989,0.546818160364438,-2.5151203607000627,0.4037542230670756,0.41689072118694526,118.37894733044588,0.06129198288499787,0.7062791581007309,-10.72694926796071,-9.892987490348485,-154.16746761946465,0.03391789878059901,-2.9999999999999982,1.0000000000000004,0.034999999999999976,0.34290552141642894,0.6831051241928495,195.08285714281496,13.61737677527151,-5.134264232008592
roaf78tUWxWSEjAUcUu8O7mrQbl1,-0.6306073068046905,2.946362730706633,-5.005666577374716,-0.3056514635774963,0.3023729352799649,0.7974345649227245,0.8066618254668989,1.0047762742119828,-0.7197993714408909,-7.016455544474533,-0.04475731354781091,0.6744270003917114,-4.75384988476295,-1.5845615834556972,-126.11423503807453,0.05207374325021385,-2.0,0.4000000000000004,0.02499999999999999,0.09213976800960551,0.6303953465563902,579.8371428625939,4.81283422459893,-0.4383851442674948
s5gTyWKzfkdHXNT3qicwPmdONYv1,-0.2688017897281584,1.1120401141765979,-0.792867623081706,-0.05248301110788862,0.07104642670128429,0.7019126459020654,-0.6840512701575647,0.20431813838071136,-2.0925500205761565,19.432509740300038,0.09463202868946946,0.7776630678556463,-5.266190811065638,-2.823169369410248,-41.44968099836969,0.025215891779359286,0.6666666666666661,-0.6857142857142867,-0.004999999999999991,0.10000259053394145,0.8846841300508206,-1722.3828571432673,-0.7407407407407618,1.38528138528139
sqfXvh6GJLaYAqr3RvHrixP8IOx1,-0.6224882903445108,0.015502218814051711,-1.610631270966779,-0.07452968995856023,-0.09787602402880476,0.3712250001518648,-0.8785574728444883,1.7223575435050786,-0.8540141863381897,46.77152776877086,0.0511841810085573,0.6568275507420952,-14.755299132007657,-8.643848298868289,-111.52959026535319,0.021875161875161895,6.0,-1.5428571428571412,-0.10000000000000005,0.18151709648954506,0.9088827938560269,-4990.174285854609,-18.88111888111888,4.855144855144855
ssPK6ISW0HerTGke9hznqJ2LpKu1,-0.8187919805280306,-2.329897301166616,-0.939653326433607,0.019147301129237085,-0.03945408044044104,0.520468208829111,-1.0582215544233533,-3.869145964535579,-0.49518813911179876,-66.65254692566509,0.1188031748303346,0.7861537741473483,-3.373105661128704,-3.3852507584551237,-41.776146898028294,0.049785237981832424,-1.0,-0.14285714285714277,0.01,0.0073784871518039535,0.6505694476148545,-577.9399996076304,4.4914344914344895,-2.0891806606092347
tB4wPBbnWJUXeOC3Zxjph0Esgjf1,0.7528215267859392,2.599904505561472,-0.05930993111321783,-0.024741335628376198,-0.017899737564254135,0.5852826374742847,1.0140072627855294,-3.3936459381573867,-6.636929900763311,-114.28702168682265,0.17123558642559863,0.6697765428140319,4.367681045392361,4.079321324127593,-3.6218073923107994,0.05061883196894639,-1.0,0.31428571428571567,0.009999999999999995,0.041793298811020896,0.6057447153639851,2093.091428593228,8.557625948930287,-3.833185448092283
tPxs1KmmX0ZKjHS9Nr63xoOPCRr2,-4.28865129547456,-4.428770869214754,-4.353689853523099,0.035212070079881634,0.10458198012675092,0.6792920176405473,-2.8047417237463668,-0.644771875480773,-4.104743878008054,43.108999911149304,0.09864547572295516,0.7861927648663063,-6.942970567438144,-8.0884973262181,-78.77032828252658,0.034632034632034646,-0.33333333333333215,0.14285714285714357,0.02499999999999999,0.35509429541994875,0.7333489118255375,-96.21714259556249,3.030303030303017,-1.2987012987013016
tv88wS5Nf6SjruozSmXJxQSmx6J3,3.052161096649164,3.86747744366575,0.5869030214283298,-0.12682975129126506,0.061905242415917966,0.5301810586854161,-0.5982579425261135,0.8793127554761381,1.802959567056651,60.76242064058295,0.04041245191665047,0.7327592561232439,-18.52137082194495,-13.25509526720472,-112.94052322547293,0.04967948717948719,-1.6666666666666679,0.42857142857142944,-2.4010079217588417e-17,0.2681411851543105,0.7206070361698155,-2049.648571418012,3.7950937950937913,-2.2795299938157028
u64Uf920g5VD9Byq26LT2rs5o4t1,-3.2127824847390136,-2.963868575305344,-2.3939125271500536,0.03197014308372016,-0.13247131050334013,0.5258949630751308,-1.534305335356372,-1.4556833765689023,-1.4401392358577998,-2.952230774255941,-0.08775192314243016,0.6824802091941341,-3.557993886977696,-1.6209644352273105,-91.71964445006999,0.04118353939325806,4.333333333333334,-0.8285714285714284,-0.02,0.3238101229048447,0.6458051289435137,-1820.3999999863724,-5.558209906035998,-0.4831193651069443
uM3kxG78g5ZtXtbAEzZyM4XFmaI3,4.248389531228174,2.339881578120729,0.09298034921632298,-0.0402333935276257,0.02906682957974208,0.4414038665048051,1.2532362734984666,-1.7857413754166112,1.0065538999617818,-51.266472224543534,0.042910281114657,0.49282833416789823,-24.82055496110276,-10.516789755894287,-127.84485702089317,0.04644130379424497,1.0,-0.37142857142857144,0.020000000000000007,0.4087984113369573,0.7670329586835966,-4012.5114285562745,-6.050893550893534,2.108011036582464
v8nNKiWvPdcjiHXZci39OuFTY6M2,-2.114641118339478,0.2402504277699316,-2.4295596613208112,-0.113020057642891,0.1590857825801062,0.6676482077018849,2.062085595127621,0.8548607273915155,-1.9197925378157024,-0.8540674613039883,0.005267731125962798,0.5060441325281285,-8.332099064767453,-8.472747943046233,-229.35184543336388,0.06022139625080803,0.6666666666666661,-0.05714285714285721,-1.4321551275446575e-17,0.2594965921506188,0.819788563990276,-516.0971428590175,-2.9761904761904816,0.08503401360544725
wdppvL4tIkVlGjou6aYzzjlaZXB2,-2.7618095259374695,-2.0499771845179056,0.09876698488440755,0.013285732126084568,-0.09145175380312925,0.7020225785738119,-2.7722234062139712,-2.4232498868873296,0.108384317136308,-3.467404401584064,0.29167869818307246,0.6520961284518951,-1.8144927475580663,-2.6842943114444955,-49.60275799068615,0.0050817085748068635,,35.0,0.007142857142857144,0.37150171055653336,0.6223701159843466,51239.05000002497,,
wkhxvE50megJGMA1EiROSZIJWNq1,-0.6956189852171518,-2.3568908269202016,0.025034717802952466,0.05693989477679218,0.055175116992576816,0.5950711647022476,-0.20602488138297828,0.48121721214180335,1.2747716056785294,11.7195437036214,0.12388989829879639,0.6223440046394412,-9.52180268390808,-3.7305190174354577,-82.88407689341174,0.05375977789770895,6.000000000000002,-0.7428571428571425,-0.00999999999999997,0.24034270596867005,0.7975828501469334,-3122.725714276944,-20.923520923520925,3.4584463155891685
xBGZhFOeypWnqzSQClkrwV9z2vF3,-4.030613812864266,-7.106090563384842,-1.0492854534172051,0.15334241706950863,0.023177523944910555,0.5967852989483535,-1.5298694866207079,1.1005658840750254,-1.1834095206443709,92.89678571429876,0.21351976179983465,0.5933292957615194,-0.9034092489778458,-2.298191874969835,-58.24220446220855,0.05776307026307027,-0.6666666666666679,-0.0571428571428562,-0.025000000000000005,0.24762328306427764,0.8076689580870259,57.97428571448282,3.0303030303030454,0.6060606060606044
xFaL2YdAmJcWA8oTLXhVCHNqt0K3,2.095950274584,2.6585987306556635,0.10016217882813985,-0.07345021781407517,0.10788834192560169,0.7204843163460708,1.3510288006328373,-2.9008092253619675,1.7895060385381625,-93.8740277777985,0.15296582516092333,0.8166062691295183,-4.596283925942185,-4.616207668955097,-50.66277514968808,0.04117434852728972,-9.666666666666666,1.3428571428571439,0.010000000000000042,0.13230286836014268,0.6969303939888625,622.7142857141406,19.120879120879124,-4.0858189429618035
xHctBv4C2EU8rHYRouw0btT3GT02,-0.9896578740148614,-5.43455020761095,5.26648623386697,0.311856540071553,0.10860502943530105,0.6162692208655838,-2.350921589082827,-0.5269349898763781,-0.2875793917207138,14.61660714277739,0.036735691565540775,0.5696551726516565,-4.572088735234633,-1.865768403796136,-74.04324561603856,0.040990790255496144,-6.0,1.771428571428571,0.05499999999999999,0.2297136637777215,0.8346937005726457,2054.811428571479,20.239791073124415,-6.461593961593957
xyAILKfYP2M8GqAai11x6NT7IcP2,0.8126422535642128,2.0428296601496196,1.4956078983587222,0.02322332986055036,-0.010858669653507666,0.6602992133709071,-0.8066690013087752,3.731280729145657,-0.7540876968265193,153.55975000001837,0.19706447538999386,0.7625853455883096,-11.810361336946785,-2.5449125642524857,-102.13415076151661,0.049432146800567865,-1.6666666666666679,0.4285714285714292,-0.010000000000000005,0.5775478808854659,0.7685976624964754,-1114.7171428571862,-0.6876456876456842,0.24342324342323973
y1EHXv8tUTa4BRS4fRio7bULYfA2,-2.511284463058718,-4.785833601732006,-2.3281140410336567,0.0608938012210584,0.028307392109484415,0.6460274362903992,-1.9062400716005088,-2.460132959312596,-1.6839968063748791,-7.71944936870456,0.20168885489276636,0.645762632733109,-14.972106216459878,-7.559255586958314,-69.33916800235731,0.0431967602401039,-1.0,-0.25714285714285723,-2.0202232272373914e-17,0.2731811475375,0.6171754167327631,-4255.702857276373,-0.1424501424501301,-1.2576312576312578
yGTid3RXTdQe5JNosdSxvgktWIW2,-2.539263038859362,-2.8287781151243347,-1.0950581631969594,-0.020495346823762535,0.32875228764207287,0.7687670822053972,-3.554713406098777,-5.987315761626311,-2.0609034857556505,-66.8629285715165,0.23927881841456297,0.7797622200435895,-21.199546464134226,-16.117997856974394,-66.7872743909612,0.056410256410256425,1.666666666666666,-0.5428571428571424,-0.05000000000000001,0.26708030197397364,1.153724538436811,-4175.214285700664,-11.15551115551115,3.5488321202606885
yatBVTBMCSMp0wJluOCLzTFKMyP2,4.556879598710606,2.1002754693376553,7.147796585721308,0.07998817693386293,0.25726320962351945,0.8889172204362953,1.4110103353090127,0.21659723864841687,-0.10282614519744165,-47.54188311696171,0.14637900250091568,0.6811553208856455,-14.734766682584407,-10.504656741931825,-71.38197480616496,0.0627990473578709,3.0000000000000018,-1.1142857142857137,0.025000000000000012,0.3629487897580217,0.9099531681532311,-4592.971428569726,-5.338044308632533,1.4346647750009105
yfjd8LbAMrYeG54927d3GiKAyXI2,-1.4246437817593158,-2.861985867487454,0.02588199084342666,-0.22409660811823628,0.2733953714982366,0.7085239571754145,1.6887065711422056,0.23405281615003162,2.1007496881096017,2.1311525974047796,0.16456214122793525,0.729310993087163,-9.395441267593158,-7.977799485447809,-75.61986366574486,0.05238593106240166,2.666666666666668,-1.1428571428571426,0.049999999999999996,0.37528758350974756,0.8953730352004426,-2980.5857142857067,-14.113990584578843,6.261973320796851
zxG9mUnF7uRkaOKSoCPsiRZzr372,4.385624292887482,2.720479623375464,3.569781694526789,-0.018505055434864526,-0.03599954253574446,0.45056765935416304,1.064381337249055,-0.8730815499928862,-1.3651990761016581,-51.50625540903124,0.08719953766697221,0.7478617756984917,0.6337181226146809,1.7042886861885387,-113.8768544565312,0.04194943377168442,9.333333333333334,-2.4571428571428573,0.03500000000000001,0.026095765392429752,0.5776330635690005,-4032.5600000074924,-21.212121212121218,4.87012987012987
